T[Â°C]	350nm [counts / mm]	S.D.	First derivative	S.D. of first derivative
19.99929	6949.268	28.33503	-104.4048	3.979095
20.05328	6943.539	28.2883	-104.2734	3.887482
20.10727	6937.81	28.24805	-104.1422	3.795998
20.16126	6932.083	28.21369	-104.0113	3.704657
20.21525	6926.358	28.18384	-103.8806	3.613468
20.26924	6920.639	28.15738	-103.7502	3.522449
20.32323	6914.924	28.13358	-103.6201	3.431614
20.37722	6909.217	28.11209	-103.4904	3.340983
20.43121	6903.519	28.09186	-103.3609	3.250565
20.4852	6897.831	28.07319	-103.2319	3.160395
20.53919	6892.152	28.05449	-103.1032	3.070487
20.59318	6886.483	28.03611	-102.9749	2.980863
20.64717	6880.822	28.01812	-102.8471	2.891543
20.70116	6875.166	28.00162	-102.7197	2.802563
20.75515	6869.513	27.98856	-102.5928	2.713939
20.80914	6863.855	27.98163	-102.4664	2.625696
20.86313	6858.184	27.98808	-102.3405	2.537858
20.91712	6852.483	28.0224	-102.2151	2.450458
20.97111	6846.74	28.10934	-102.0903	2.363511
21.0251	6841.086	28.20933	-101.966	2.277046
21.07909	6835.44	28.27855	-101.8422	2.191096
21.13308	6829.819	28.30474	-101.7189	2.105677
21.18707	6824.236	28.28088	-101.5963	2.020803
21.24106	6818.702	28.21406	-101.4741	1.936503
21.29505	6813.222	28.11565	-101.3524	1.852784
21.34904	6807.794	27.99773	-101.2313	1.769655
21.40303	6802.416	27.86926	-101.1106	1.687124
21.45702	6797.074	27.7343	-100.9903	1.605187
21.51101	6791.758	27.60523	-100.8705	1.523846
21.565	6786.46	27.49834	-100.751	1.443088
21.61899	6781.172	27.42346	-100.6318	1.362896
21.67298	6775.886	27.38356	-100.5129	1.283255
21.72697	6770.593	27.377	-100.3943	1.204132
21.78096	6765.286	27.40448	-100.2758	1.125484
21.83495	6759.958	27.4645	-100.1574	1.047281
21.88894	6754.608	27.54963	-100.0391	0.9694663
21.94293	6749.247	27.6496	-99.92085	0.8919898
21.99692	6743.883	27.75492	-99.80251	0.8148046
22.05091	6738.522	27.85742	-99.68402	0.7378543
22.1049	6733.168	27.95763	-99.5653	0.6610984
22.1589	6727.82	28.06369	-99.44624	0.5845226
22.21288	6722.474	28.18692	-99.32674	0.5081523
22.26687	6717.131	28.33914	-99.20665	0.4321511
22.32087	6711.792	28.53136	-99.08585	0.3569658
22.37486	6706.458	28.77054	-98.96427	0.2837897
22.42885	6701.133	29.05734	-98.84189	0.2157954
22.48284	6695.82	29.38366	-98.71886	0.1619121
22.53683	6690.523	29.73439	-98.59563	0.1428594
22.59082	6685.244	30.09249	-98.47295	0.1740454
22.64481	6679.982	30.43938	-98.38317	0.1915746
22.6988	6674.733	30.76295	-98.29703	0.2262148
22.75279	6669.488	31.05517	-98.21469	0.2684232
22.80678	6664.247	31.31204	-98.13632	0.3126408
22.86077	6659.006	31.53225	-98.06203	0.35615
22.91476	6653.757	31.71127	-97.99193	0.397741
22.96875	6648.493	31.84628	-97.92605	0.4370704
23.02274	6643.212	31.93689	-97.86439	0.4742807
23.07673	6637.919	31.98145	-97.80691	0.5098822
23.13072	6632.624	31.97589	-97.75354	0.5445873
23.18471	6627.334	31.91965	-97.70415	0.5792388
23.2387	6622.058	31.81747	-97.6586	0.6147332
23.29269	6616.801	31.67635	-97.61668	0.6519498
23.34668	6611.569	31.50086	-97.57813	0.6916789
23.40067	6606.359	31.28892	-97.54268	0.7345221
23.45466	6601.168	31.04	-97.50996	0.780904
23.50865	6595.992	30.75987	-97.47959	0.8310238
23.56264	6590.826	30.45896	-97.45118	0.8848744
23.61663	6585.662	30.14593	-97.42428	0.9422797
23.67062	6580.496	29.82648	-97.39848	1.002887
23.72461	6575.321	29.51079	-97.37341	1.066198
23.7786	6570.131	29.20613	-97.34868	1.131567
23.83259	6564.92	28.91628	-97.32399	1.198228
23.88658	6559.688	28.64762	-97.2991	1.265282
23.94057	6554.439	28.40407	-97.27385	1.331786
23.99456	6549.18	28.18755	-97.24815	1.396713
24.04855	6543.917	27.99489	-97.22199	1.45905
24.10254	6538.654	27.81964	-97.19541	1.517787
24.15653	6533.395	27.65421	-97.16844	1.571956
24.21052	6528.142	27.49778	-97.14115	1.62064
24.26451	6522.896	27.35662	-97.11356	1.663029
24.3185	6517.66	27.23718	-97.08569	1.698437
24.37249	6512.43	27.14642	-97.05753	1.726349
24.42648	6507.202	27.0862	-97.02907	1.746396
24.48047	6501.966	27.05876	-97.00024	1.758407
24.53446	6496.717	27.06842	-96.97101	1.762393
24.58845	6491.455	27.11322	-96.94126	1.75856
24.64244	6486.18	27.18436	-96.91092	1.747278
24.69643	6480.897	27.27164	-96.87991	1.729049
24.75042	6475.612	27.35705	-96.8482	1.704489
24.80441	6470.327	27.42368	-96.81574	1.67426
24.8584	6465.046	27.45654	-96.78259	1.639087
24.9124	6459.766	27.44108	-96.7488	1.599713
24.96638	6454.48	27.36293	-96.71445	1.556906
25.02037	6449.188	27.21417	-96.67965	1.511428
25.07437	6443.893	26.99132	-96.64455	1.464074
25.12836	6438.603	26.69671	-96.6093	1.4156
25.18235	6433.314	26.3401	-96.57407	1.366747
25.23634	6428.027	25.94415	-96.53898	1.318156
25.29033	6422.745	25.54267	-96.50417	1.270403
25.34432	6417.479	25.16466	-96.46975	1.223943
25.39831	6412.229	24.83265	-96.43575	1.179137
25.4523	6406.994	24.55888	-96.4022	1.136204
25.50629	6401.778	24.34381	-96.36908	1.095257
25.56028	6396.579	24.17727	-96.33633	1.056341
25.61427	6391.39	24.04968	-96.30388	1.019446
25.66826	6386.205	23.95481	-96.27163	0.9845226
25.72225	6381.019	23.89613	-96.23946	0.9515194
25.77624	6375.824	23.87637	-96.20725	0.9203908
25.83023	6370.614	23.89498	-96.1749	0.8910689
25.88422	6365.391	23.95059	-96.1423	0.8634841
25.93821	6360.163	24.04262	-96.10941	0.8375595
25.9922	6354.942	24.1737	-96.0762	0.8132142
26.04619	6349.737	24.34238	-96.04266	0.7904384
26.10018	6344.555	24.54176	-96.0088	0.7692659
26.15417	6339.404	24.76674	-95.97462	0.749802
26.20816	6334.284	25.01217	-95.94012	0.7321779
26.26215	6329.189	25.27477	-95.90526	0.7166038
26.31614	6324.113	25.55568	-95.87	0.7033117
26.37013	6319.046	25.84952	-95.83424	0.6925648
26.42412	6313.981	26.14411	-95.79788	0.6846265
26.47811	6308.909	26.4289	-95.76076	0.679729
26.5321	6303.816	26.69131	-95.7227	0.6780633
26.58609	6298.7	26.91661	-95.68352	0.6797205
26.64008	6293.56	27.09508	-95.64299	0.6846802
26.69407	6288.403	27.21865	-95.60093	0.6927848
26.74806	6283.243	27.28199	-95.55714	0.7037499
26.80205	6278.094	27.28685	-95.51154	0.717145
26.85604	6272.965	27.24001	-95.46407	0.7324668
26.91003	6267.861	27.14825	-95.41473	0.7491329
26.96402	6262.778	27.01559	-95.3636	0.7665732
27.01801	6257.714	26.84351	-95.31078	0.7842832
27.072	6252.665	26.63514	-95.25645	0.8018515
27.12599	6247.619	26.39031	-95.20081	0.8190092
27.17998	6242.562	26.11002	-95.14407	0.8356063
27.23397	6237.481	25.80465	-95.08646	0.8516378
27.28796	6232.372	25.48763	-95.02819	0.8671826
27.34195	6227.228	25.17778	-94.96947	0.8823809
27.39594	6222.043	24.89432	-94.9105	0.8973854
27.44993	6216.823	24.6531	-94.85146	0.912315
27.50392	6211.58	24.46329	-94.79254	0.9272071
27.55791	6206.329	24.32508	-94.73397	0.9420084
27.6119	6201.08	24.22907	-94.67597	0.9565742
27.6659	6195.846	24.15886	-94.61872	0.9706588
27.71988	6190.637	24.10032	-94.56242	0.9839442
27.77387	6185.454	24.04549	-94.5072	0.9960572
27.82787	6180.295	23.99209	-94.4532	1.00661
27.88186	6175.156	23.94133	-94.40055	1.015218
27.93585	6170.027	23.8959	-94.34932	1.021531
27.98984	6164.895	23.86803	-94.29959	1.025262
28.04383	6159.747	23.87075	-94.25136	1.026218
28.09782	6154.574	23.91192	-94.20461	1.024306
28.15181	6149.38	23.98663	-94.15929	1.019556
28.2058	6144.173	24.0795	-94.11534	1.012114
28.25979	6138.961	24.174	-94.07266	1.002194
28.31378	6133.757	24.24896	-94.03114	0.9900624
28.36777	6128.573	24.29012	-93.99066	0.97599
28.42176	6123.417	24.29321	-93.9511	0.960216
28.47575	6118.289	24.26004	-93.91232	0.9429272
28.52974	6113.187	24.19387	-93.87421	0.9242551
28.58373	6108.112	24.09088	-93.83665	0.9042825
28.63772	6103.065	23.94486	-93.79951	0.8830193
28.69171	6098.044	23.75581	-93.76266	0.8604247
28.7457	6093.046	23.52733	-93.72598	0.8364825
28.79969	6088.066	23.26789	-93.68938	0.8111982
28.85368	6083.098	22.99196	-93.65279	0.7846257
28.90767	6078.142	22.71916	-93.61617	0.7568581
28.96166	6073.2	22.46609	-93.5795	0.7280614
29.01565	6068.275	22.24354	-93.54283	0.6984192
29.06964	6063.366	22.05493	-93.5062	0.6681634
29.12363	6058.473	21.89821	-93.46967	0.637486
29.17762	6053.593	21.76909	-93.43333	0.6065339
29.23161	6048.723	21.66556	-93.39732	0.5754327
29.2856	6043.856	21.58527	-93.36176	0.544239
29.33959	6038.981	21.526	-93.32681	0.512966
29.39358	6034.088	21.4881	-93.29266	0.4815635
29.44757	6029.169	21.4773	-93.25951	0.4499571
29.50156	6024.227	21.50494	-93.22762	0.4180436
29.55555	6019.261	21.57716	-93.19721	0.3857258
29.60954	6014.277	21.70027	-93.16856	0.3529153
29.66353	6009.28	21.87542	-93.14188	0.3195677
29.71752	6004.277	22.09839	-93.11742	0.2857005
29.77151	5999.269	22.36014	-93.09537	0.2514193
29.8255	5994.257	22.64697	-93.07595	0.2169404
29.87949	5989.247	22.94084	-93.05936	0.1825946
29.93348	5984.239	23.2214	-93.04575	0.1488045
29.98747	5979.229	23.47093	-93.03519	0.1160632
30.04146	5974.208	23.68011	-93.02773	0.08490925
30.09545	5969.161	23.8468	-93.02334	0.05594535
30.14944	5964.082	23.97271	-93.02187	0.02991727
30.20343	5958.971	24.06235	-93.02319	0.009427649
30.25742	5953.833	24.11678	-93.02706	0.01574448
30.31141	5948.678	24.13766	-93.03324	0.03008544
30.3654	5943.525	24.12379	-93.04145	0.04043083
30.4194	5938.382	24.07169	-93.0514	0.0458607
30.47338	5933.256	23.98192	-93.06277	0.04598887
30.52737	5928.155	23.85832	-93.07531	0.04057555
30.58137	5923.087	23.70583	-93.08869	0.0295678
30.63535	5918.058	23.53413	-93.10266	0.01341667
30.68935	5913.066	23.35109	-93.11695	0.01155983
30.74334	5908.104	23.1652	-93.13131	0.03815616
30.79733	5903.159	22.9853	-93.14546	0.07048429
30.85132	5898.223	22.8179	-93.15912	0.1074028
30.90531	5893.285	22.67231	-93.172	0.1483548
30.9593	5888.337	22.55836	-93.18379	0.1927974
31.01329	5883.367	22.48492	-93.19421	0.2401515
31.06728	5878.369	22.45728	-93.20296	0.2897932
31.12127	5873.34	22.47211	-93.2098	0.3410295
31.17526	5868.284	22.52508	-93.21448	0.3931157
31.22925	5863.212	22.60887	-93.21676	0.4453109
31.28324	5858.131	22.71589	-93.21645	0.4968718
31.33723	5853.049	22.837	-93.21338	0.5470555
31.39122	5847.974	22.96318	-93.20742	0.5951479
31.44521	5842.903	23.09094	-93.19852	0.6404915
31.4992	5837.834	23.21271	-93.18667	0.6824682
31.55319	5832.76	23.32082	-93.17188	0.720543
31.60718	5827.679	23.41321	-93.15418	0.7542635
31.66117	5822.595	23.49256	-93.13358	0.7832471
31.71516	5817.511	23.56923	-93.11012	0.8072354
31.76915	5812.431	23.64985	-93.08381	0.8260932
31.82314	5807.359	23.73686	-93.05471	0.8398463
31.87713	5802.296	23.82967	-93.02285	0.8486677
31.93112	5797.238	23.92101	-92.9883	0.8528636
31.98511	5792.18	23.99927	-92.9511	0.8528588
32.0391	5787.115	24.04769	-92.91131	0.8491545
32.09309	5782.043	24.04991	-92.86903	0.8423173
32.14708	5776.97	23.99522	-92.82435	0.8329681
32.20107	5771.903	23.8761	-92.7774	0.8217555
32.25506	5766.849	23.69823	-92.72832	0.8093501
32.30905	5761.81	23.47443	-92.67732	0.7964724
32.36304	5756.782	23.21239	-92.62458	0.7838566
32.41703	5751.758	22.91816	-92.57028	0.7722473
32.47102	5746.739	22.59692	-92.51464	0.7623622
32.52501	5741.729	22.26091	-92.45785	0.754878
32.579	5736.735	21.9266	-92.40006	0.7503847
32.63299	5731.764	21.60901	-92.34146	0.7493699
32.68699	5726.816	21.31524	-92.2822	0.7521707
32.74097	5721.882	21.04942	-92.22248	0.7589871
32.79496	5716.951	20.80935	-92.16244	0.769905
32.84895	5712.013	20.592	-92.10223	0.7848802
32.90294	5707.061	20.38671	-92.04201	0.8037501
32.95694	5702.094	20.18775	-91.98189	0.8262599
33.01093	5697.114	19.99994	-91.92204	0.8520645
33.06491	5692.116	19.82835	-91.86262	0.8807253
33.1189	5687.103	19.67802	-91.80379	0.9117298
33.17289	5682.078	19.55969	-91.74572	0.9445068
33.22689	5677.047	19.48743	-91.68853	0.978458
33.28088	5672.017	19.4676	-91.63232	1.012981
33.33487	5666.998	19.50071	-91.57721	1.047475
33.38885	5662.003	19.58364	-91.52328	1.081358
33.44284	5657.043	19.71154	-91.47066	1.114089
33.49684	5652.118	19.8776	-91.4194	1.145167
33.55083	5647.218	20.07491	-91.36957	1.174162
33.60482	5642.332	20.28938	-91.32118	1.200702
33.65881	5637.446	20.514	-91.27422	1.224477
33.7128	5632.557	20.74278	-91.22862	1.245271
33.76679	5627.665	20.96712	-91.18427	1.262922
33.82078	5622.777	21.17882	-91.14102	1.277334
33.87477	5617.9	21.37682	-91.0987	1.288474
33.92876	5613.033	21.56516	-91.05714	1.296327
33.98275	5608.169	21.7418	-91.01614	1.300879
34.03674	5603.301	21.89766	-90.97552	1.30212
34.09073	5598.423	22.02387	-90.93513	1.30003
34.14472	5593.538	22.11212	-90.89485	1.294567
34.19871	5588.657	22.1583	-90.85463	1.28569
34.2527	5583.799	22.16514	-90.81443	1.273374
34.30669	5578.972	22.13661	-90.77425	1.257604
34.36068	5574.177	22.07081	-90.73409	1.238391
34.41467	5569.408	21.9601	-90.69394	1.215766
34.46866	5564.659	21.7997	-90.6538	1.189813
34.52265	5559.92	21.59369	-90.61365	1.160662
34.57664	5555.182	21.35094	-90.57347	1.128528
34.63063	5550.437	21.08227	-90.53325	1.093698
34.68462	5545.678	20.79847	-90.49296	1.056563
34.73861	5540.893	20.51163	-90.4526	1.017564
34.7926	5536.073	20.23585	-90.41216	0.9771745
34.84659	5531.211	19.97671	-90.37163	0.9358562
34.90058	5526.307	19.73366	-90.33099	0.8940384
34.95457	5521.365	19.5074	-90.29028	0.8520638
35.00856	5516.39	19.29446	-90.24953	0.8102254
35.06255	5511.39	19.08951	-90.20882	0.7687373
35.11654	5506.381	18.89263	-90.16822	0.7277505
35.17053	5501.374	18.71465	-90.12782	0.6873572
35.22452	5496.379	18.56889	-90.08765	0.647598
35.27851	5491.402	18.46589	-90.04772	0.6084771
35.3325	5486.443	18.40864	-90.00806	0.5699833
35.38649	5481.506	18.39267	-89.96863	0.532087
35.44048	5476.593	18.40737	-89.92942	0.4947638
35.49447	5471.698	18.4382	-89.89037	0.4580317
35.54846	5466.809	18.46791	-89.85141	0.4219433
35.60246	5461.907	18.48497	-89.81242	0.3866351
35.65644	5456.986	18.48362	-89.77326	0.3522762
35.71043	5452.047	18.46214	-89.73381	0.3190944
35.76442	5447.1	18.41931	-89.6939	0.2873383
35.81841	5442.152	18.35451	-89.65336	0.257259
35.87241	5437.212	18.27549	-89.61205	0.2290868
35.9264	5432.29	18.19151	-89.56978	0.2030534
35.98038	5427.394	18.11107	-89.52643	0.1794053
36.03437	5422.53	18.03768	-89.48185	0.1584204
36.08837	5417.702	17.97234	-89.43592	0.1404292
36.14236	5412.909	17.915	-89.38853	0.1257905
36.19635	5408.149	17.86326	-89.33965	0.1148508
36.25034	5403.416	17.81548	-89.28924	0.1077997
36.30433	5398.7	17.77299	-89.23727	0.104543
36.35832	5393.992	17.73451	-89.18377	0.1045961
36.41231	5389.276	17.69619	-89.12871	0.1071991
36.4663	5384.539	17.66159	-89.07207	0.1115003
36.52029	5379.771	17.64077	-89.01386	0.1167727
36.57428	5374.972	17.64554	-88.95413	0.1224897
36.62827	5370.147	17.69001	-88.89298	0.1283831
36.68226	5365.303	17.78406	-88.83057	0.134413
36.73625	5360.446	17.93554	-88.76711	0.1407743
36.79024	5355.586	18.15174	-88.70286	0.1478056
36.84423	5350.739	18.43083	-88.63811	0.1559578
36.89822	5345.917	18.76713	-88.57314	0.1656901
36.95221	5341.126	19.15046	-88.50824	0.1774255
37.0062	5336.366	19.56391	-88.4437	0.1914788
37.06019	5331.632	19.98555	-88.37981	0.2080508
37.11418	5326.914	20.38939	-88.3168	0.2272376
37.16817	5322.202	20.75589	-88.25483	0.2490048
37.22216	5317.49	21.07209	-88.19403	0.2732368
37.27615	5312.772	21.32697	-88.13445	0.2997452
37.33014	5308.042	21.5168	-88.07607	0.3283207
37.38413	5303.3	21.64775	-88.01884	0.3587297
37.43812	5298.55	21.72558	-87.96264	0.3907577
37.49211	5293.798	21.75579	-87.90736	0.4242193
37.5461	5289.041	21.75047	-87.85284	0.4589732
37.60009	5284.279	21.71804	-87.79895	0.4949637
37.65408	5279.518	21.66187	-87.74557	0.5321632
37.70807	5274.771	21.58352	-87.6926	0.5705796
37.76206	5270.05	21.47867	-87.63994	0.6102288
37.81605	5265.358	21.34139	-87.58752	0.6510894
37.87004	5260.696	21.16292	-87.53526	0.6930676
37.92403	5256.057	20.93576	-87.48313	0.7360291
37.97802	5251.433	20.65904	-87.43106	0.7797656
38.03201	5246.814	20.34087	-87.37901	0.8240268
38.086	5242.189	19.99388	-87.3269	0.8684699
38.13999	5237.547	19.6303	-87.27465	0.9127042
38.19398	5232.879	19.2594	-87.22218	0.9562626
38.24797	5228.181	18.89459	-87.1694	0.9986482
38.30196	5223.452	18.55411	-87.11623	1.039305
38.35595	5218.701	18.24654	-87.06255	1.077656
38.40994	5213.939	17.97534	-87.00825	1.113119
38.46394	5209.178	17.7452	-86.95319	1.145108
38.51793	5204.427	17.55291	-86.89729	1.173091
38.57191	5199.694	17.39592	-86.84045	1.196554
38.6259	5194.981	17.27154	-86.78263	1.215063
38.67989	5190.288	17.17606	-86.72385	1.228264
38.73389	5185.611	17.11111	-86.66418	1.235919
38.78788	5180.94	17.07487	-86.60372	1.237911
38.84187	5176.272	17.05936	-86.54257	1.234265
38.89585	5171.606	17.05313	-86.4809	1.225119
38.94984	5166.94	17.0466	-86.41884	1.210744
39.00384	5162.273	17.0342	-86.35654	1.191555
39.05783	5157.6	17.00784	-86.29415	1.1681
39.11182	5152.91	16.96206	-86.23177	1.141019
39.16581	5148.198	16.90007	-86.16951	1.111015
39.2198	5143.465	16.82526	-86.10737	1.078838
39.27379	5138.713	16.74073	-86.04536	1.045228
39.32778	5133.951	16.64969	-85.98345	1.010936
39.38177	5129.187	16.55188	-85.92153	0.9766657
39.43576	5124.431	16.44598	-85.85952	0.9431051
39.48975	5119.697	16.33151	-85.79727	0.9108813
39.54374	5114.989	16.21277	-85.73463	0.8805657
39.59773	5110.307	16.09452	-85.67147	0.8526202
39.65172	5105.649	15.98227	-85.60764	0.827391
39.70571	5101.017	15.88487	-85.54304	0.8050696
39.7597	5096.411	15.80722	-85.47761	0.7856547
39.81369	5091.828	15.74922	-85.41133	0.7689598
39.86768	5087.258	15.70626	-85.34422	0.7546096
39.92167	5082.695	15.67168	-85.27632	0.742067
39.97566	5078.137	15.64363	-85.20773	0.7306854
40.02965	5073.582	15.62387	-85.13859	0.7197602
40.08364	5069.028	15.61001	-85.06906	0.7085708
40.13763	5064.476	15.59647	-84.99935	0.696478
40.19162	5059.924	15.58324	-84.92969	0.6829408
40.24561	5055.376	15.57816	-84.86029	0.667576
40.2996	5050.831	15.59087	-84.79144	0.6501696
40.35359	5046.294	15.63188	-84.72336	0.6307073
40.40758	5041.77	15.71003	-84.65629	0.6093464
40.46157	5037.26	15.83321	-84.59045	0.5864019
40.51556	5032.76	16.00021	-84.52603	0.5623329
40.56955	5028.265	16.20044	-84.46323	0.5377422
40.62354	5023.773	16.42846	-84.40221	0.513336
40.67753	5019.281	16.6791	-84.34312	0.4898671
40.73152	5014.788	16.94326	-84.28612	0.4680599
40.78551	5010.288	17.20611	-84.23133	0.4485547
40.8395	5005.776	17.45225	-84.17887	0.4318073
40.89349	5001.249	17.67098	-84.12888	0.41804
40.94748	4996.702	17.8583	-84.08144	0.4071982
41.00147	4992.14	18.01161	-84.03666	0.3989531
41.05546	4987.563	18.13106	-83.99459	0.3927091
41.10946	4982.982	18.21752	-83.95527	0.3876969
41.16344	4978.403	18.27674	-83.91867	0.383006
41.21743	4973.83	18.31529	-83.88476	0.3777016
41.27142	4969.27	18.3372	-83.85344	0.3708771
41.32542	4964.724	18.34395	-83.82459	0.3617539
41.37941	4960.195	18.34234	-83.79804	0.3496729
41.4334	4955.684	18.33479	-83.7736	0.3341605
41.48738	4951.191	18.31938	-83.75101	0.3148978
41.54137	4946.716	18.29064	-83.72995	0.2917656
41.59537	4942.254	18.24071	-83.71005	0.2648491
41.64936	4937.803	18.16051	-83.6909	0.2345322
41.70335	4933.363	18.05009	-83.67201	0.2015888
41.75734	4928.932	17.91738	-83.65294	0.1675115
41.81133	4924.507	17.7747	-83.63322	0.1353207
41.86532	4920.087	17.63658	-83.61247	0.1113116
41.91931	4915.67	17.51299	-83.59029	0.1056871
41.9733	4911.254	17.41203	-83.56637	0.12388
42.02729	4906.837	17.3359	-83.54044	0.1593119
42.08128	4902.415	17.28022	-83.51234	0.2036512
42.13527	4897.986	17.23728	-83.48189	0.2521069
42.18926	4893.546	17.19786	-83.44904	0.302166
42.24325	4889.09	17.15948	-83.41376	0.352342
42.29724	4884.61	17.1237	-83.37609	0.4016232
42.35123	4880.104	17.09168	-83.33607	0.4492137
42.40522	4875.576	17.07277	-83.29379	0.4944556
42.45921	4871.032	17.07455	-83.24932	0.5367767
42.5132	4866.477	17.09209	-83.20278	0.5757024
42.56719	4861.911	17.12358	-83.15426	0.6108401
42.62118	4857.332	17.17178	-83.10385	0.6418622
42.67517	4852.74	17.23933	-83.05165	0.6685123
42.72916	4848.142	17.32555	-82.99776	0.6906172
42.78315	4843.542	17.42353	-82.9423	0.7080876
42.83714	4838.946	17.52454	-82.88541	0.7209284
42.89113	4834.356	17.62359	-82.82726	0.7292208
42.94512	4829.775	17.71493	-82.76801	0.7331472
42.99911	4825.203	17.79164	-82.70784	0.7329832
43.0531	4820.642	17.83926	-82.64693	0.7290748
43.10709	4816.089	17.84282	-82.58546	0.7218429
43.16108	4811.542	17.79343	-82.52358	0.711828
43.21507	4806.995	17.69084	-82.46148	0.6996509
43.26906	4802.441	17.53727	-82.39932	0.6859939
43.32305	4797.88	17.33924	-82.33727	0.6715969
43.37704	4793.311	17.11079	-82.27541	0.6571927
43.43103	4788.739	16.87305	-82.21386	0.6435162
43.48502	4784.172	16.64544	-82.15266	0.6312617
43.53901	4779.616	16.44339	-82.09183	0.621035
43.593	4775.079	16.27146	-82.03133	0.6133398
43.64699	4770.57	16.12672	-81.97109	0.6085648
43.70098	4766.094	15.99934	-81.91096	0.606966
43.75497	4761.656	15.87222	-81.85078	0.6086637
43.80896	4757.255	15.73243	-81.79036	0.6136681
43.86295	4752.891	15.56747	-81.72952	0.6218625
43.91694	4748.556	15.37515	-81.66812	0.6330393
43.97094	4744.242	15.16041	-81.60601	0.6468722
44.02493	4739.939	14.93495	-81.54311	0.6629946
44.07891	4735.643	14.71674	-81.47933	0.6809672
44.1329	4731.348	14.52326	-81.41469	0.7003528
44.18689	4727.057	14.37123	-81.34921	0.7207138
44.24089	4722.771	14.27404	-81.28298	0.7416432
44.29488	4718.493	14.23919	-81.21616	0.7627895
44.34887	4714.22	14.26704	-81.14892	0.7838272
44.40285	4709.947	14.35406	-81.08146	0.8044489
44.45684	4705.672	14.4962	-81.01398	0.8243614
44.51084	4701.396	14.68913	-80.94669	0.8432845
44.56483	4697.118	14.92834	-80.8798	0.860947
44.61882	4692.843	15.19698	-80.81348	0.8770614
44.67281	4688.573	15.47368	-80.74791	0.8913257
44.7268	4684.309	15.73611	-80.68323	0.9034287
44.78079	4680.053	15.96658	-80.61958	0.913074
44.83478	4675.802	16.1532	-80.55708	0.9199992
44.88877	4671.552	16.29335	-80.49587	0.9240189
44.94276	4667.295	16.39471	-80.43606	0.9250158
44.99675	4663.027	16.46887	-80.37777	0.9229854
45.05074	4658.741	16.52619	-80.32112	0.9179889
45.10473	4654.433	16.57029	-80.26624	0.9101809
45.15872	4650.106	16.60319	-80.21324	0.8998155
45.21271	4645.764	16.63103	-80.16232	0.8872381
45.2667	4641.412	16.65112	-80.11365	0.8728839
45.32069	4637.049	16.65682	-80.06741	0.8572618
45.37468	4632.68	16.64009	-80.02376	0.8409722
45.42867	4628.31	16.59008	-79.98284	0.8246845
45.48266	4623.94	16.49721	-79.94473	0.8091023
45.53665	4619.574	16.35034	-79.9095	0.7949325
45.59064	4615.21	16.14759	-79.87715	0.7828513
45.64463	4610.852	15.90039	-79.84763	0.7734985
45.69862	4606.499	15.62063	-79.82087	0.7674392
45.75261	4602.153	15.32095	-79.79669	0.7651366
45.8066	4597.814	15.00799	-79.77491	0.766858
45.86059	4593.482	14.69173	-79.75527	0.7727002
45.91458	4589.16	14.38648	-79.73749	0.7825544
45.96857	4584.843	14.10495	-79.72124	0.7961162
46.02256	4580.531	13.8584	-79.70621	0.812897
46.07655	4576.214	13.65692	-79.69207	0.8322382
46.13054	4571.883	13.50691	-79.67849	0.8533655
46.18453	4567.538	13.40962	-79.66521	0.8754522
46.23852	4563.187	13.36129	-79.65197	0.8976358
46.29251	4558.838	13.35242	-79.63857	0.9190831
46.3465	4554.499	13.36943	-79.62485	0.9390336
46.40049	4550.172	13.39635	-79.61063	0.956807
46.45448	4545.86	13.42257	-79.59577	0.9718219
46.50847	4541.564	13.44344	-79.58011	0.9835967
46.56247	4537.278	13.45826	-79.56346	0.9917693
46.61646	4533	13.46535	-79.54565	0.9960974
46.67044	4528.722	13.46236	-79.5265	0.9964621
46.72443	4524.442	13.45146	-79.5058	0.9928688
46.77842	4520.157	13.43616	-79.48335	0.9854433
46.83242	4515.862	13.41941	-79.45893	0.9744472
46.88641	4511.557	13.40211	-79.43231	0.9602461
46.9404	4507.242	13.38743	-79.40327	0.943333
46.99438	4502.929	13.38267	-79.37163	0.9242671
47.04837	4498.627	13.38745	-79.33722	0.9036906
47.10237	4494.343	13.39397	-79.29996	0.8822629
47.15636	4490.083	13.39539	-79.25978	0.8606037
47.21035	4485.848	13.39128	-79.21674	0.8392683
47.26434	4481.638	13.38785	-79.17094	0.8186934
47.31833	4477.446	13.39015	-79.12257	0.7991533
47.37232	4473.262	13.39661	-79.07185	0.7807272
47.42631	4469.077	13.40072	-79.01906	0.7632851
47.4803	4464.885	13.38921	-78.96445	0.7465169
47.53429	4460.681	13.35186	-78.90833	0.7299735
47.58828	4456.46	13.28322	-78.85094	0.713119
47.64227	4452.221	13.18545	-78.79253	0.6953331
47.69626	4447.964	13.07051	-78.73331	0.6759999
47.75025	4443.687	12.95155	-78.67345	0.6545137
47.80424	4439.389	12.84443	-78.61308	0.6303236
47.85823	4435.07	12.76414	-78.55225	0.6029931
47.91222	4430.74	12.72144	-78.49101	0.5721974
47.96621	4426.412	12.72045	-78.42937	0.5377724
48.0202	4422.095	12.76538	-78.36732	0.4997492
48.07419	4417.796	12.8618	-78.30482	0.4584045
48.12818	4413.515	13.01242	-78.24189	0.4143683
48.18217	4409.247	13.20787	-78.17852	0.368715
48.23616	4404.989	13.43598	-78.11476	0.3232462
48.29015	4400.732	13.68199	-78.05065	0.2808638
48.34414	4396.466	13.92956	-77.98627	0.2461334
48.39813	4392.188	14.16728	-77.92168	0.2253775
48.45212	4387.9	14.38158	-77.8569	0.2245522
48.50611	4383.604	14.56614	-77.792	0.2449411
48.5601	4379.306	14.72143	-77.72697	0.2822205
48.61409	4375.014	14.85553	-77.66179	0.3303109
48.66808	4370.736	14.98152	-77.59643	0.3843503
48.72207	4366.476	15.11178	-77.53085	0.4410242
48.77606	4362.243	15.25153	-77.46498	0.4981005
48.83005	4358.037	15.39811	-77.39874	0.5539981
48.88404	4353.859	15.54486	-77.33201	0.6075211
48.93803	4349.709	15.68561	-77.26464	0.6577072
48.99202	4345.585	15.81604	-77.19646	0.70376
49.04601	4341.486	15.92573	-77.12735	0.7450334
49.1	4337.409	16.00233	-77.05716	0.7810293
49.15399	4333.348	16.03746	-76.98582	0.8113607
49.20798	4329.296	16.02567	-76.91331	0.8357943
49.26197	4325.248	15.96818	-76.83965	0.8542321
49.31596	4321.196	15.86926	-76.76492	0.8667247
49.36995	4317.138	15.73243	-76.68926	0.8734698
49.42394	4313.073	15.56015	-76.61288	0.8748521
49.47794	4308.998	15.359	-76.53599	0.8714453
49.53193	4304.909	15.13797	-76.45888	0.8639765
49.58591	4300.805	14.90634	-76.38187	0.8533511
49.6399	4296.689	14.67418	-76.30527	0.8406508
49.6939	4292.568	14.44796	-76.2294	0.8271345
49.74789	4288.446	14.23246	-76.15453	0.8141904
49.80188	4284.323	14.03148	-76.08091	0.8032504
49.85587	4280.198	13.84719	-76.00874	0.7956998
49.90985	4276.067	13.67735	-75.93822	0.7927389
49.96385	4271.934	13.51864	-75.86948	0.7952202
50.01784	4267.799	13.37351	-75.80264	0.8035537
50.07183	4263.669	13.24883	-75.73782	0.8176363
50.12582	4259.547	13.14359	-75.67508	0.8368884
50.17981	4255.44	13.05498	-75.6145	0.8603736
50.2338	4251.354	12.98359	-75.55616	0.8868784
50.28779	4247.287	12.93066	-75.50011	0.9151039
50.34178	4243.238	12.90148	-75.4464	0.9437255
50.39577	4239.203	12.89666	-75.39506	0.9715135
50.44976	4235.177	12.91151	-75.34612	0.9973417
50.50375	4231.157	12.93756	-75.29958	1.020269
50.55774	4227.138	12.96628	-75.25542	1.039507
50.61173	4223.118	12.98998	-75.21361	1.054459
50.66572	4219.098	13.0035	-75.17405	1.064666
50.71971	4215.074	13.00239	-75.13664	1.069799
50.7737	4211.04	12.98812	-75.10126	1.069663
50.82769	4206.993	12.96311	-75.06773	1.064214
50.88168	4202.933	12.92625	-75.03584	1.053514
50.93567	4198.866	12.87751	-75.00535	1.037773
50.98966	4194.797	12.81963	-74.97599	1.017278
51.04365	4190.738	12.75522	-74.94751	0.9924067
51.09764	4186.699	12.68873	-74.91963	0.9635964
51.15163	4182.686	12.62271	-74.89208	0.9313474
51.20562	4178.701	12.56235	-74.86461	0.896181
51.25961	4174.736	12.51321	-74.83698	0.8586234
51.3136	4170.786	12.48101	-74.80898	0.8191987
51.36759	4166.841	12.46443	-74.78044	0.7784056
51.42158	4162.895	12.45282	-74.75122	0.7366885
51.47557	4158.939	12.43166	-74.72126	0.6944479
51.52956	4154.967	12.38883	-74.6905	0.6520109
51.58355	4150.976	12.316	-74.65898	0.6096481
51.63754	4146.964	12.21211	-74.62672	0.5675464
51.69153	4142.931	12.0813	-74.59377	0.5258629
51.74552	4138.877	11.93303	-74.56017	0.4846616
51.79951	4134.805	11.77898	-74.52591	0.4439729
51.8535	4130.721	11.63081	-74.49103	0.4037719
51.90749	4126.633	11.50067	-74.45555	0.3640265
51.96148	4122.551	11.39824	-74.41948	0.3247253
52.01547	4118.485	11.33098	-74.38284	0.2859076
52.06947	4114.435	11.30283	-74.3456	0.2477942
52.12346	4110.4	11.31478	-74.30775	0.2109155
52.17744	4106.378	11.3619	-74.26921	0.176397
52.23143	4102.367	11.43777	-74.22993	0.1465217
52.28542	4098.362	11.52936	-74.18983	0.1255615
52.33942	4094.36	11.62475	-74.14882	0.1194209
52.39341	4090.357	11.71044	-74.10684	0.1311477
52.4474	4086.342	11.77288	-74.06382	0.1574304
52.50138	4082.305	11.80771	-74.01971	0.192709
52.55537	4078.243	11.82075	-73.97449	0.2329396
52.60937	4074.162	11.82294	-73.92815	0.2756989
52.66336	4070.07	11.82888	-73.88068	0.3194701
52.71735	4065.974	11.85237	-73.83211	0.3631824
52.77134	4061.881	11.9041	-73.78245	0.4059808
52.82533	4057.798	11.98823	-73.73173	0.4471202
52.87932	4053.731	12.10175	-73.67995	0.4859183
52.93331	4049.685	12.23927	-73.62714	0.5217444
52.9873	4045.665	12.39501	-73.57326	0.5540731
53.04129	4041.675	12.5596	-73.51832	0.5824679
53.09528	4037.715	12.71686	-73.46228	0.6066021
53.14927	4033.782	12.8506	-73.40511	0.6262388
53.20326	4029.871	12.9504	-73.34675	0.641224
53.25725	4025.97	13.0138	-73.28715	0.6514694
53.31124	4022.071	13.04071	-73.22626	0.6569407
53.36523	4018.164	13.03364	-73.1641	0.6576391
53.41922	4014.243	12.99987	-73.1007	0.6536244
53.47321	4010.311	12.9512	-73.03618	0.6450108
53.5272	4006.367	12.89578	-72.97069	0.6319398
53.58119	4002.414	12.83997	-72.90442	0.6146028
53.63518	3998.455	12.78644	-72.83757	0.5932019
53.68917	3994.496	12.73597	-72.77035	0.5679759
53.74316	3990.539	12.68912	-72.70299	0.5391794
53.79715	3986.585	12.64759	-72.63569	0.5070884
53.85114	3982.636	12.60814	-72.56863	0.4720501
53.90513	3978.697	12.56746	-72.50202	0.4344273
53.95912	3974.773	12.52267	-72.436	0.3946846
54.01311	3970.867	12.4671	-72.37071	0.3534057
54.0671	3966.976	12.39893	-72.30622	0.3113982
54.12109	3963.097	12.31836	-72.24259	0.2698106
54.17508	3959.226	12.22622	-72.17983	0.2304136
54.22907	3955.36	12.12229	-72.11793	0.196093
54.28306	3951.5	12.01399	-72.05685	0.1712733
54.33705	3947.649	11.91235	-71.99657	0.1613858
54.39104	3943.807	11.8238	-71.937	0.1694434
54.44503	3939.969	11.75376	-71.87811	0.1931069
54.49902	3936.13	11.70456	-71.8198	0.2270853
54.55301	3932.286	11.67182	-71.76204	0.2667814
54.607	3928.439	11.6503	-71.70476	0.309172
54.66099	3924.595	11.63316	-71.64791	0.3523961
54.71498	3920.759	11.61517	-71.59148	0.3952676
54.76897	3916.932	11.58985	-71.53547	0.4369816
54.82296	3913.111	11.55344	-71.4799	0.4770003
54.87695	3909.293	11.50149	-71.42482	0.5149087
54.93095	3905.474	11.43115	-71.37021	0.5503791
54.98494	3901.655	11.34557	-71.31605	0.5831153
55.03893	3897.838	11.25113	-71.26228	0.6128415
55.09291	3894.027	11.15466	-71.20882	0.6393025
55.1469	3890.223	11.06689	-71.15556	0.6622303
55.2009	3886.426	11.00119	-71.10236	0.6813635
55.25489	3882.631	10.96584	-71.04905	0.696444
55.30888	3878.832	10.95851	-70.99548	0.7072344
55.36287	3875.021	10.96854	-70.9415	0.7135128
55.41685	3871.196	10.9846	-70.88702	0.7151017
55.47085	3867.361	10.99749	-70.83198	0.7118245
55.52484	3863.519	11.00414	-70.77637	0.7035771
55.57883	3859.671	11.00556	-70.72021	0.6902878
55.63282	3855.82	11.00603	-70.66353	0.6719831
55.68681	3851.97	11.01111	-70.60635	0.6487475
55.7408	3848.127	11.02824	-70.54874	0.6207561
55.79479	3844.294	11.06282	-70.49078	0.5882562
55.84878	3840.469	11.11893	-70.43253	0.5515664
55.90277	3836.649	11.2006	-70.37408	0.5110818
55.95676	3832.83	11.30882	-70.31546	0.4672587
56.01075	3829.003	11.4445	-70.25674	0.4206136
56.06474	3825.163	11.60684	-70.19791	0.3717335
56.11873	3821.312	11.79148	-70.13897	0.3212309
56.17272	3817.454	11.99158	-70.07989	0.2697457
56.22671	3813.594	12.1997	-70.02064	0.2179199
56.2807	3809.737	12.40709	-69.96116	0.1663853
56.33469	3805.889	12.60113	-69.90137	0.1158538
56.38868	3802.055	12.77072	-69.84124	0.06751668
56.44267	3798.24	12.91052	-69.78067	0.02763135
56.49666	3794.442	13.01793	-69.71962	0.03966698
56.55065	3790.661	13.09444	-69.65806	0.08021235
56.60464	3786.891	13.1446	-69.596	0.1214442
56.65863	3783.134	13.17413	-69.53347	0.1609777
56.71262	3779.379	13.19192	-69.4705	0.1983668
56.76661	3775.621	13.2077	-69.4072	0.2335005
56.8206	3771.856	13.22856	-69.34359	0.2663823
56.87459	3768.083	13.25077	-69.27975	0.2970781
56.92858	3764.308	13.26401	-69.21569	0.3257379
56.98257	3760.539	13.25611	-69.15141	0.3525716
57.03656	3756.783	13.2192	-69.08682	0.3778404
57.09055	3753.045	13.15192	-69.02187	0.4018483
57.14454	3749.328	13.05477	-68.95645	0.4249261
57.19853	3745.635	12.92886	-68.89042	0.4474333
57.25252	3741.966	12.77734	-68.82362	0.46972
57.30651	3738.318	12.60491	-68.75588	0.4921432
57.3605	3734.681	12.4182	-68.68703	0.5150113
57.41449	3731.049	12.22406	-68.61688	0.5386056
57.46848	3727.419	12.03299	-68.54528	0.5631434
57.52247	3723.787	11.85381	-68.4721	0.588748
57.57647	3720.147	11.6926	-68.39722	0.6154521
57.63046	3716.492	11.55407	-68.32052	0.6431653
57.68444	3712.825	11.44419	-68.24192	0.6717082
57.73843	3709.147	11.36244	-68.16135	0.700837
57.79242	3705.467	11.30262	-68.07874	0.7302187
57.84642	3701.792	11.25963	-67.99408	0.7594482
57.90041	3698.123	11.23097	-67.90736	0.7880774
57.9544	3694.459	11.2164	-67.8186	0.8156292
58.00838	3690.796	11.21284	-67.72782	0.8416114
58.06238	3687.134	11.21245	-67.63502	0.8655463
58.11637	3683.477	11.20585	-67.5402	0.8869565
58.17036	3679.832	11.18969	-67.44337	0.9054041
58.22435	3676.202	11.16422	-67.34453	0.9205241
58.27834	3672.584	11.13164	-67.24368	0.93201
58.33233	3668.971	11.10031	-67.14083	0.9396291
58.38632	3665.357	11.08062	-67.03598	0.9432154
58.44031	3661.737	11.07923	-66.92915	0.9426948
58.4943	3658.109	11.09375	-66.82033	0.9380609
58.54829	3654.481	11.11909	-66.70961	0.9294152
58.60228	3650.856	11.1468	-66.59709	0.9169067
58.65627	3647.238	11.17003	-66.48289	0.9007774
58.71026	3643.628	11.18444	-66.3672	0.881312
58.76425	3640.025	11.18825	-66.25014	0.858851
58.81824	3636.424	11.17903	-66.13189	0.8337731
58.87223	3632.819	11.1515	-66.01255	0.806498
58.92622	3629.209	11.09808	-65.89223	0.7774768
58.98021	3625.596	11.01475	-65.771	0.7471625
59.0342	3621.979	10.90456	-65.6489	0.7160415
59.08819	3618.353	10.77431	-65.5259	0.6845598
59.14218	3614.715	10.63169	-65.40192	0.6531544
59.19617	3611.067	10.48473	-65.2768	0.6221929
59.25016	3607.412	10.34284	-65.15034	0.5919949
59.30415	3603.756	10.21342	-65.02226	0.5627986
59.35814	3600.108	10.10106	-64.89222	0.5347636
59.41213	3596.472	10.00492	-64.75986	0.5079288
59.46612	3592.854	9.921904	-64.62482	0.4822505
59.52011	3589.255	9.846431	-64.48672	0.4575844
59.5741	3585.674	9.769796	-64.34519	0.4337272
59.62809	3582.116	9.68919	-64.19985	0.4104226
59.68208	3578.585	9.607023	-64.05034	0.3873981
59.73607	3575.085	9.525906	-63.89631	0.3643746
59.79006	3571.622	9.447008	-63.73745	0.3411066
59.84405	3568.199	9.372199	-63.57351	0.3174206
59.89804	3564.815	9.306005	-63.40426	0.2932401
59.95203	3561.462	9.252048	-63.22953	0.2686476
60.00602	3558.13	9.214179	-63.04919	0.2439241
60.06001	3554.809	9.198159	-62.86317	0.2196003
60.114	3551.495	9.212877	-62.67142	0.1965539
60.168	3548.188	9.261427	-62.47394	0.176152
60.22198	3544.888	9.339321	-62.27076	0.1603094
60.27597	3541.596	9.438275	-62.06195	0.1512708
60.32996	3538.313	9.54719	-61.84764	0.1508154
60.38395	3535.036	9.658288	-61.62794	0.1592246
60.43795	3531.765	9.762035	-61.40301	0.1750925
60.49194	3528.503	9.849162	-61.173	0.1961871
60.54593	3525.249	9.912782	-60.93812	0.2203504
60.59991	3522.004	9.955389	-60.6986	0.2458459
60.6539	3518.764	9.988441	-60.4547	0.2713417
60.7079	3515.524	10.02234	-60.20673	0.2958184
60.76189	3512.277	10.06183	-59.95499	0.3184727
60.81588	3509.015	10.1057	-59.69978	0.3386745
60.86987	3505.732	10.15342	-59.44141	0.3559173
60.92385	3502.425	10.20574	-59.18018	0.3697906
60.97785	3499.099	10.26238	-58.91635	0.3799632
61.03184	3495.761	10.32098	-58.65016	0.3861793
61.08583	3492.418	10.37561	-58.38179	0.3882689
61.13982	3489.076	10.41879	-58.11136	0.3861256
61.19381	3485.739	10.4435	-57.83892	0.3797252
61.2478	3482.413	10.44787	-57.56442	0.3690976
61.30179	3479.106	10.43707	-57.28775	0.3543527
61.35578	3475.83	10.41541	-57.00874	0.3357035
61.40977	3472.593	10.38694	-56.72714	0.3134671
61.46376	3469.399	10.3557	-56.44265	0.2880809
61.51775	3466.247	10.32587	-56.15492	0.2601122
61.57174	3463.137	10.30068	-55.86349	0.2303399
61.62573	3460.068	10.28283	-55.56784	0.1998497
61.67972	3457.037	10.27302	-55.26735	0.1702843
61.73371	3454.039	10.27293	-54.96134	0.1442693
61.7877	3451.068	10.28597	-54.6491	0.1258885
61.84169	3448.125	10.31165	-54.3299	0.1200526
61.89568	3445.212	10.34552	-54.00299	0.1291165
61.94967	3442.33	10.3807	-53.66763	0.1504998
62.00366	3439.474	10.41106	-53.32307	0.1796023
62.05765	3436.643	10.43155	-52.96861	0.2128623
62.11164	3433.837	10.44225	-52.60352	0.2480902
62.16563	3431.06	10.4461	-52.2271	0.2840213
62.21962	3428.314	10.4501	-51.83871	0.3198761
62.27361	3425.601	10.46216	-51.43766	0.3551971
62.3276	3422.916	10.4888	-51.02335	0.3897143
62.38159	3420.252	10.53047	-50.59514	0.4233121
62.43558	3417.597	10.58321	-50.15244	0.4559914
62.48957	3414.941	10.63905	-49.69463	0.4878408
62.54356	3412.28	10.68768	-49.22116	0.5190116
62.59755	3409.614	10.72756	-48.73148	0.5496768
62.65154	3406.942	10.75992	-48.22509	0.5800561
62.70553	3404.266	10.78036	-47.70151	0.6103408
62.75952	3401.589	10.78368	-47.16026	0.6407396
62.81351	3398.915	10.76748	-46.60091	0.6714666
62.8675	3396.242	10.73099	-46.023	0.7026559
62.92149	3393.573	10.67614	-45.4261	0.7344373
62.97548	3390.913	10.60874	-44.80978	0.7668316
63.02947	3388.266	10.53355	-44.17361	0.7998309
63.08347	3385.637	10.45107	-43.51717	0.8333601
63.13745	3383.027	10.35866	-42.84001	0.8672524
63.19144	3380.442	10.25836	-42.14165	0.9012687
63.24543	3377.883	10.15617	-41.42161	0.935154
63.29943	3375.353	10.05785	-40.67934	0.968608
63.35342	3372.856	9.968419	-39.91425	1.001362
63.40741	3370.395	9.890496	-39.12574	1.033164
63.4614	3367.971	9.824391	-38.31309	1.063789
63.51538	3365.59	9.771014	-37.47561	1.093146
63.56938	3363.258	9.730607	-36.61247	1.121174
63.62337	3360.978	9.70102	-35.7228	1.147925
63.67736	3358.752	9.678029	-34.80571	1.173527
63.73135	3356.579	9.661241	-33.86022	1.198218
63.78534	3354.455	9.65328	-32.8853	1.222261
63.83933	3352.381	9.657659	-31.87996	1.246071
63.89332	3350.357	9.678281	-30.84316	1.270098
63.94731	3348.382	9.720399	-29.77383	1.29484
64.0013	3346.448	9.787175	-28.67092	1.320918
64.05529	3344.552	9.882048	-27.53331	1.348903
64.10928	3342.695	10.00694	-26.35994	1.379395
64.16327	3340.883	10.1614	-25.14966	1.412915
64.21726	3339.126	10.34571	-23.90142	1.449928
64.27125	3337.44	10.56313	-22.6141	1.490865
64.32524	3335.832	10.81497	-21.28657	1.535985
64.37923	3334.308	11.09915	-19.91776	1.585514
64.43322	3332.869	11.40939	-18.50651	1.639549
64.48721	3331.513	11.73243	-17.05173	1.698098
64.5412	3330.241	12.0544	-15.55221	1.761079
64.59519	3329.052	12.36714	-14.00678	1.828295
64.64918	3327.946	12.66435	-12.41427	1.8995
64.70317	3326.926	12.94196	-10.77343	1.974308
64.75716	3325.995	13.19891	-9.083048	2.052284
64.81115	3325.155	13.43221	-7.341832	2.132909
64.86514	3324.409	13.63635	-5.548519	2.215651
64.91913	3323.76	13.81224	-3.701759	2.299848
64.97312	3323.208	13.96977	-1.800198	2.384842
65.02711	3322.756	14.11679	0.1574667	2.469924
65.0811	3322.402	14.25448	2.172663	2.554324
65.13509	3322.146	14.38221	4.246742	2.637322
65.18908	3321.991	14.49751	6.381166	2.718091
65.24307	3321.941	14.59881	8.577377	2.796019
65.29707	3321.999	14.68468	10.83691	2.870403
65.35105	3322.167	14.75432	13.16138	2.940847
65.40504	3322.446	14.80505	15.55241	3.006986
65.45903	3322.832	14.83308	18.01178	3.06852
65.51302	3323.326	14.83953	20.54122	3.125426
65.56702	3323.925	14.827	23.14256	3.177588
65.621	3324.628	14.79862	25.8176	3.225254
65.675	3325.437	14.75807	28.56821	3.268558
65.72898	3326.36	14.70789	31.39623	3.307861
65.78297	3327.406	14.65285	34.3035	3.343576
65.83697	3328.588	14.60341	37.29196	3.376109
65.89095	3329.914	14.57595	40.36346	3.406089
65.94495	3331.391	14.58085	43.52005	3.43407
65.99893	3333.024	14.62075	46.76357	3.460769
66.05293	3334.819	14.69744	50.09613	3.486893
66.10692	3336.776	14.81197	53.51971	3.513312
66.1609	3338.897	14.9617	57.03645	3.540692
66.2149	3341.182	15.13858	60.64841	3.569935
66.26888	3343.636	15.33627	64.35761	3.601828
66.32288	3346.26	15.54981	68.16632	3.637133
66.37687	3349.058	15.77735	72.0766	3.676692
66.43085	3352.035	16.0131	76.09071	3.721145
66.48485	3355.195	16.24917	80.21085	3.77133
66.53883	3358.545	16.48163	84.43939	3.827672
66.59283	3362.094	16.70957	88.7786	3.890936
66.64682	3365.852	16.93404	93.23083	3.961684
66.70081	3369.823	17.15995	97.79842	4.040352
66.7548	3374.012	17.39338	102.4837	4.12741
66.80878	3378.428	17.6347	107.2892	4.223045
66.86278	3383.079	17.88181	112.2173	4.327714
66.91677	3387.975	18.13516	117.2704	4.441402
66.97076	3393.126	18.39614	122.4511	4.564336
67.02475	3398.543	18.66668	127.7619	4.696473
67.07874	3404.237	18.94432	133.2053	4.837722
67.13273	3410.215	19.22443	138.7839	4.987934
67.18672	3416.484	19.50703	144.5004	5.14672
67.24071	3423.049	19.78834	150.3571	5.31397
67.2947	3429.916	20.06101	156.3569	5.489146
67.34869	3437.093	20.31811	162.5022	5.672004
67.40268	3444.587	20.55421	168.7957	5.862097
67.45667	3452.41	20.7706	175.24	6.058987
67.51066	3460.572	20.96973	181.8375	6.262189
67.56465	3469.083	21.15408	188.5909	6.471023
67.61864	3477.951	21.32989	195.5021	6.685087
67.67263	3487.186	21.50225	202.5734	6.903523
67.72662	3496.796	21.67359	209.8065	7.125776
67.78061	3506.791	21.84956	217.2029	7.350991
67.8346	3517.177	22.04366	224.7635	7.578361
67.8886	3527.963	22.27066	232.489	7.807092
67.94258	3539.161	22.53878	240.3796	8.036149
67.99657	3550.784	22.84971	248.4347	8.264853
68.05056	3562.836	23.20233	256.6534	8.492164
68.10455	3575.316	23.59662	265.0341	8.717398
68.15855	3588.225	24.02689	273.5746	8.939765
68.21253	3601.561	24.48177	282.2719	9.158544
68.26653	3615.325	24.9504	291.1227	9.373125
68.32051	3629.53	25.42595	300.1228	9.582741
68.3745	3644.188	25.90284	309.2675	9.786998
68.4285	3659.318	26.37798	318.5517	9.9852
68.48248	3674.935	26.85671	327.9694	10.17692
68.53648	3691.058	27.348	337.5143	10.36166
68.59046	3707.706	27.86037	347.1797	10.53892
68.64445	3724.897	28.40184	356.9582	10.70832
68.69845	3742.646	28.97934	366.842	10.86923
68.75243	3760.959	29.59733	376.8227	11.02138
68.80643	3779.843	30.25688	386.8916	11.16418
68.86041	3799.303	30.95687	397.0395	11.29734
68.91441	3819.344	31.69154	407.2567	11.42034
68.9684	3839.973	32.45764	417.5331	11.53278
69.02238	3861.197	33.2487	427.8584	11.63431
69.07638	3883.028	34.05553	438.2216	11.72442
69.13036	3905.479	34.87514	448.6113	11.80282
69.18436	3928.566	35.70372	459.0157	11.86906
69.23835	3952.304	36.53824	469.4224	11.92281
69.29234	3976.712	37.37608	479.8188	11.96368
69.34633	4001.809	38.21849	490.192	11.99134
69.40031	4027.612	39.07526	500.5282	12.00539
69.45431	4054.145	39.95451	510.8138	12.00537
69.5083	4081.422	40.85996	521.0344	11.99079
69.56229	4109.465	41.79136	531.1755	11.96115
69.61628	4138.287	42.74872	541.222	11.91572
69.67027	4167.901	43.72993	551.1588	11.85382
69.72426	4198.306	44.73346	560.9698	11.77472
69.77825	4229.502	45.75769	570.6392	11.6775
69.83224	4261.491	46.80038	580.1501	11.56143
69.88623	4294.281	47.85738	589.4859	11.4255
69.94022	4327.883	48.91967	598.6288	11.26911
69.99421	4362.306	49.9767	607.5614	11.09137
70.0482	4397.557	51.02006	616.2654	10.89166
70.10219	4433.637	52.04235	624.7223	10.66946
70.15618	4470.534	53.03288	632.9136	10.42435
70.21017	4508.231	53.97525	640.8201	10.15633
70.26416	4546.692	54.85603	648.4231	9.865029
70.31815	4585.87	55.66327	655.7033	9.55088
70.37214	4625.703	56.38714	662.6421	9.213782
70.42613	4666.128	57.02095	669.2206	8.854241
70.48012	4707.079	57.56622	675.4205	8.472797
70.53411	4748.497	58.02958	681.2241	8.070084
70.5881	4790.33	58.42382	686.6138	7.647286
70.64209	4832.54	58.76783	691.5735	7.204942
70.69608	4875.095	59.08352	696.0871	6.744824
70.75008	4917.964	59.39083	700.1406	6.26765
70.80406	4961.12	59.7052	703.7198	5.775511
70.85806	5004.539	60.03267	706.8132	5.269508
70.91204	5048.206	60.37426	709.4094	4.751385
70.96603	5092.108	60.72389	711.4986	4.223569
71.02003	5136.231	61.07264	713.0731	3.687112
71.07401	5180.566	61.41372	714.1256	3.144906
71.12801	5225.097	61.73623	714.6516	2.598228
71.18199	5269.798	62.03033	714.6469	2.05004
71.23598	5314.643	62.2892	714.1099	1.502368
71.28998	5359.599	62.50576	713.0399	0.9588122
71.34396	5404.634	62.6824	711.4385	0.4303734
71.39796	5449.718	62.8271	709.3082	0.2037836
71.45194	5494.818	62.94764	706.6531	0.6826477
71.50594	5539.899	63.04985	703.4797	1.19579
71.55993	5584.935	63.13669	699.7943	1.70147
71.61391	5629.898	63.2093	695.6063	2.195635
71.66791	5674.748	63.26333	690.925	2.675896
71.72189	5719.431	63.28857	685.762	3.140748
71.77589	5763.89	63.27501	680.1293	3.589229
71.82988	5808.062	63.21433	674.0399	4.019759
71.88387	5851.885	63.09136	667.5086	4.432309
71.93786	5895.28	62.88302	660.5499	4.82545
71.99184	5938.167	62.56641	653.1802	5.199245
72.04584	5980.456	62.12838	645.4158	5.553145
72.09983	6022.054	61.56303	637.2737	5.886838
72.15382	6062.867	60.86497	628.7719	6.200367
72.20781	6102.803	60.03605	619.9277	6.493296
72.2618	6141.785	59.08488	610.7599	6.766391
72.31579	6179.742	58.0289	601.2866	7.019312
72.36978	6216.615	56.89042	591.5268	7.252739
72.42377	6252.358	55.69998	581.4991	7.467049
72.47776	6286.939	54.48713	571.2223	7.662507
72.53175	6320.343	53.27386	560.7152	7.839728
72.58574	6352.559	52.08463	549.9963	7.998795
72.63973	6383.589	50.93992	539.0846	8.140407
72.69372	6413.442	49.85157	527.9986	8.264587
72.74771	6442.139	48.81789	516.7573	8.371816
72.8017	6469.703	47.82878	505.3795	8.462265
72.85569	6496.169	46.87166	493.8839	8.53607
72.90968	6521.564	45.93672	482.2894	8.59345
72.96367	6545.913	45.01801	470.6149	8.634448
73.01766	6569.23	44.11251	458.8794	8.659301
73.07165	6591.537	43.21689	447.1016	8.66825
73.12564	6612.86	42.33175	435.3004	8.661496
73.17963	6633.235	41.46953	423.4945	8.63937
73.23362	6652.697	40.64633	411.7027	8.602169
73.28761	6671.281	39.87704	399.9433	8.55024
73.3416	6689.025	39.1783	388.2349	8.484121
73.39559	6705.969	38.56618	376.5953	8.404022
73.44958	6722.148	38.05715	365.0426	8.310611
73.50357	6737.607	37.65864	353.5938	8.204108
73.55756	6752.388	37.36849	342.2658	8.085081
73.61155	6766.532	37.16925	331.0748	7.954014
73.66554	6780.076	37.03156	320.0363	7.811376
73.71954	6793.054	36.9203	309.1652	7.658036
73.77352	6805.493	36.80834	298.4753	7.494176
73.82751	6817.418	36.68491	287.98	7.320855
73.8815	6828.85	36.54409	277.6913	7.138379
73.93549	6839.804	36.39067	267.6202	6.947593
73.98949	6850.306	36.23702	257.7769	6.749286
74.04347	6860.38	36.09026	248.1702	6.544262
74.09747	6870.046	35.95607	238.8081	6.333872
74.15146	6879.315	35.83994	229.6969	6.11872
74.20544	6888.206	35.7463	220.8423	5.900517
74.25944	6896.746	35.67656	212.2484	5.680121
74.31342	6904.954	35.63367	203.918	5.458938
74.36742	6912.847	35.62115	195.8531	5.238239
74.42141	6920.445	35.64372	188.054	5.019098
74.4754	6927.764	35.69688	180.5202	4.803027
74.52939	6934.821	35.76491	173.2495	4.590625
74.58337	6941.629	35.83232	166.239	4.383285
74.63737	6948.195	35.88456	159.4845	4.181573
74.69136	6954.517	35.91143	152.9809	3.986291
74.74535	6960.598	35.90297	146.7225	3.798103
74.79934	6966.447	35.8563	140.7025	3.617389
74.85332	6972.079	35.77902	134.914	3.444852
74.90732	6977.503	35.6807	129.3488	3.280484
74.96131	6982.729	35.56776	123.9994	3.124909
75.0153	6987.751	35.44495	118.8569	2.978221
75.06929	6992.562	35.31591	113.913	2.840773
75.12328	6997.161	35.18913	109.1588	2.712883
75.17727	7001.554	35.07325	104.5858	2.594757
75.23126	7005.752	34.96725	100.1856	2.486795
75.28525	7009.771	34.86103	95.94943	2.388983
75.33924	7013.625	34.74302	91.86947	2.301662
75.39323	7017.33	34.60284	87.9377	2.224823
75.44722	7020.907	34.43298	84.14665	2.158561
75.50121	7024.37	34.23164	80.48919	2.102832
75.5552	7027.723	33.9974	76.9585	2.057475
75.60919	7030.965	33.7306	73.54832	2.022338
75.66318	7034.092	33.43661	70.25248	1.996924
75.71717	7037.102	33.12564	67.06548	1.980903
75.77116	7039.988	32.80551	63.9819	1.973544
75.82515	7042.751	32.47531	60.99691	1.974284
75.87914	7045.404	32.1342	58.10578	1.982231
75.93313	7047.962	31.79196	55.3042	1.996576
75.98712	7050.437	31.46353	52.58809	2.016448
76.04111	7052.834	31.17243	49.95358	2.040912
76.0951	7055.15	30.94047	47.39709	2.069147
76.14909	7057.38	30.77355	44.91513	2.100137
76.20308	7059.528	30.66425	42.50452	2.133055
76.25707	7061.589	30.59761	40.16215	2.166946
76.31107	7063.554	30.55534	37.88506	2.200969
76.36505	7065.414	30.52646	35.67042	2.234318
76.41904	7067.162	30.50646	33.51542	2.266174
76.47303	7068.792	30.492	31.41745	2.295824
76.52702	7070.298	30.48059	29.37387	2.322448
76.58102	7071.678	30.47085	27.38231	2.345352
76.635	7072.926	30.46373	25.44044	2.363747
76.689	7074.037	30.46089	23.54612	2.376912
76.74298	7075.019	30.46352	21.69732	2.384154
76.79697	7075.885	30.47817	19.89211	2.384826
76.85097	7076.644	30.51365	18.12868	2.37843
76.90495	7077.299	30.57729	16.40528	2.364505
76.95895	7077.855	30.67697	14.72036	2.342854
77.01293	7078.309	30.80851	13.07243	2.313368
77.06693	7078.655	30.96112	11.46016	2.276163
77.12092	7078.885	31.12309	9.882337	2.231523
77.1749	7078.988	31.279	8.337863	2.179888
77.2289	7078.953	31.40881	6.825812	2.121884
77.28288	7078.777	31.49717	5.34534	2.058185
77.33688	7078.464	31.533	3.895833	1.989704
77.39087	7078.025	31.51287	2.476805	1.917407
77.44485	7077.474	31.44193	1.08801	1.842441
77.49885	7076.833	31.3221	-0.2705887	1.766035
77.55284	7076.122	31.14836	-1.598822	1.689457
77.60683	7075.366	30.91705	-2.896284	1.614062
77.66082	7074.587	30.63055	-4.162473	1.541103
77.71481	7073.79	30.30403	-5.396679	1.47188
77.7688	7072.969	29.96062	-6.598144	1.407459
77.82279	7072.128	29.61911	-7.765969	1.348754
77.87678	7071.274	29.28796	-8.899186	1.296413
77.93077	7070.413	28.96322	-9.996767	1.250746
77.98476	7069.543	28.6379	-11.05763	1.211797
78.03875	7068.662	28.31461	-12.08077	1.179129
78.09274	7067.754	27.99693	-13.06513	1.152117
78.14673	7066.819	27.68166	-14.0098	1.129743
78.20072	7065.854	27.36365	-14.91395	1.110868
78.25471	7064.862	27.0361	-15.77694	1.094272
78.3087	7063.84	26.69888	-16.59836	1.07873
78.36269	7062.793	26.36316	-17.37798	1.06319
78.41668	7061.727	26.04371	-18.11589	1.046599
78.47067	7060.647	25.75576	-18.81232	1.028254
78.52466	7059.562	25.51142	-19.46776	1.007503
78.57865	7058.459	25.3225	-20.08281	0.9839864
78.63264	7057.32	25.19985	-20.65819	0.9575096
78.68663	7056.128	25.14905	-21.19477	0.9280205
78.74062	7054.875	25.16737	-21.69346	0.8957047
78.79461	7053.548	25.25145	-22.15534	0.8607392
78.8486	7052.139	25.39177	-22.58151	0.8235834
78.9026	7050.635	25.57752	-22.97322	0.7846198
78.95658	7049.029	25.80512	-23.33172	0.7443369
79.01057	7047.318	26.07171	-23.65831	0.7032349
79.06456	7045.508	26.37259	-23.95431	0.6618096
79.11855	7043.612	26.70445	-24.22104	0.6206442
79.17255	7041.652	27.06248	-24.45991	0.5802077
79.22653	7039.651	27.44308	-24.67223	0.5411425
79.28053	7037.631	27.84248	-24.85934	0.5040013
79.33451	7035.605	28.25749	-25.0225	0.4694487
79.3885	7033.584	28.68727	-25.16284	0.4382109
79.4425	7031.573	29.12968	-25.2814	0.4110661
79.49648	7029.578	29.57593	-25.37904	0.3888511
79.55048	7027.616	30.01228	-25.45651	0.3721545
79.60446	7025.699	30.41964	-25.51434	0.3613443
79.65845	7023.832	30.77925	-25.55298	0.35627
79.71245	7022.003	31.08036	-25.57272	0.3563601
79.76643	7020.205	31.32155	-25.57372	0.3606482
79.82043	7018.437	31.50832	-25.55608	0.3679442
79.87441	7016.71	31.6436	-25.51975	0.3769993
79.92841	7015.033	31.7293	-25.46467	0.386635
79.9824	7013.426	31.76371	-25.3907	0.3958489
80.03638	7011.898	31.74995	-25.2977	0.4038729
80.09038	7010.459	31.69391	-25.18554	0.4102007
80.14436	7009.114	31.60451	-25.05413	0.4145912
80.19836	7007.862	31.48437	-24.90352	0.417069
80.25235	7006.691	31.33171	-24.73382	0.4179092
80.30634	7005.584	31.15248	-24.54539	0.4177028
80.36033	7004.519	30.95892	-24.33876	0.4173027
80.41431	7003.477	30.75909	-24.11475	0.4178552
80.46831	7002.451	30.5516	-23.87435	0.4206684
80.5223	7001.428	30.33157	-23.6188	0.4271451
80.57629	7000.391	30.09622	-23.34954	0.4385229
80.63028	6999.329	29.84453	-23.06817	0.4556878
80.68427	6998.244	29.57823	-22.77646	0.4790633
80.73826	6997.141	29.30573	-22.47631	0.5085161
80.79225	6996.029	29.03803	-22.16972	0.5434487
80.84624	6994.913	28.78698	-21.85881	0.5829249
80.90023	6993.79	28.56833	-21.54579	0.6258429
80.95422	6992.66	28.39483	-21.23295	0.6710546
81.00821	6991.522	28.27199	-20.92263	0.7174239
81.0622	6990.371	28.20144	-20.61716	0.7638762
81.11619	6989.206	28.18101	-20.31885	0.8094524
81.17018	6988.032	28.19909	-20.02998	0.8532891
81.22417	6986.863	28.23732	-19.75275	0.8946753
81.27816	6985.713	28.27539	-19.48929	0.933021
81.33215	6984.591	28.29867	-19.24162	0.9679155
81.38614	6983.49	28.30292	-19.01163	0.9991177
81.44013	6982.393	28.28831	-18.80103	1.026538
81.49413	6981.292	28.25736	-18.61136	1.050262
81.54811	6980.191	28.21382	-18.44396	1.070507
81.6021	6979.1	28.16198	-18.30001	1.087668
81.65609	6978.026	28.10499	-18.18046	1.102253
81.71008	6976.975	28.05022	-18.0861	1.114903
81.76408	6975.955	28.00761	-18.01751	1.126337
81.81806	6974.978	27.98354	-17.9751	1.137322
81.87206	6974.062	27.98011	-17.95915	1.148639
81.92604	6973.214	27.99944	-17.96978	1.161005
81.98003	6972.436	28.03904	-18.00704	1.175054
82.03403	6971.721	28.09761	-18.07087	1.191253
82.08801	6971.073	28.17382	-18.16122	1.209888
82.14201	6970.489	28.26108	-18.27799	1.231067
82.19599	6969.963	28.35242	-18.42108	1.254722
82.24998	6969.486	28.43951	-18.59045	1.280654
82.30398	6969.05	28.52142	-18.78606	1.308592
82.35796	6968.637	28.60145	-19.00807	1.338171
82.41196	6968.232	28.68146	-19.25673	1.36903
82.46594	6967.825	28.76199	-19.53244	1.400774
82.51994	6967.409	28.84251	-19.83579	1.433029
82.57393	6966.973	28.92515	-20.16747	1.465457
82.62791	6966.513	29.01221	-20.52839	1.497739
82.68191	6966.022	29.10192	-20.91947	1.529669
82.73589	6965.5	29.18821	-21.34188	1.561036
82.78989	6964.949	29.25944	-21.79679	1.591747
82.84388	6964.36	29.30942	-22.28556	1.621744
82.89787	6963.724	29.33266	-22.80958	1.651026
82.95186	6963.035	29.32094	-23.37033	1.679631
83.00584	6962.282	29.26576	-23.96939	1.707563
83.05984	6961.453	29.17138	-24.60824	1.734906
83.11383	6960.531	29.04692	-25.28839	1.761669
83.16782	6959.509	28.89718	-26.01121	1.787972
83.22181	6958.385	28.72465	-26.77802	1.813893
83.27579	6957.169	28.52773	-27.59006	1.839514
83.32979	6955.876	28.31063	-28.44834	1.864925
83.38378	6954.515	28.07657	-29.35379	1.890125
83.43777	6953.093	27.82661	-30.30698	1.915223
83.49176	6951.618	27.56062	-31.30842	1.94018
83.54575	6950.091	27.27975	-32.35827	1.965086
83.59974	6948.515	26.98371	-33.45652	1.989951
83.65373	6946.889	26.67092	-34.60293	2.014785
83.70772	6945.21	26.34066	-35.79701	2.039574
83.76171	6943.476	25.99624	-37.03813	2.064167
83.8157	6941.686	25.64363	-38.32527	2.088507
83.86969	6939.838	25.2924	-39.65731	2.112293
83.92368	6937.932	24.94805	-41.03273	2.135323
83.97767	6935.968	24.61793	-42.44984	2.157221
84.03166	6933.96	24.3053	-43.90672	2.177553
84.08565	6931.919	24.00558	-45.40123	2.195863
84.13964	6929.853	23.71918	-46.93115	2.21156
84.19363	6927.766	23.44296	-48.49399	2.22423
84.24762	6925.667	23.17852	-50.08724	2.233329
84.30161	6923.548	22.93105	-51.70826	2.238537
84.35561	6921.395	22.71106	-53.3544	2.239547
84.40959	6919.184	22.52983	-55.023	2.236141
84.46358	6916.891	22.39075	-56.71134	2.228234
84.51757	6914.495	22.29372	-58.41684	2.215768
84.57156	6911.978	22.23553	-60.13682	2.198899
84.62556	6909.322	22.20867	-61.86877	2.177793
84.67954	6906.513	22.2055	-63.6102	2.152839
84.73354	6903.546	22.22117	-65.35868	2.124502
84.78752	6900.42	22.25095	-67.11197	2.093335
84.84151	6897.138	22.28969	-68.86791	2.059994
84.89551	6893.707	22.33596	-70.62453	2.025165
84.94949	6890.129	22.38815	-72.38	1.989631
85.00349	6886.408	22.44524	-74.13261	1.954144
85.05747	6882.541	22.50776	-75.88081	1.91948
85.11147	6878.522	22.57521	-77.6231	1.886423
85.16546	6874.347	22.64776	-79.35813	1.855722
85.21944	6870.016	22.72042	-81.08464	1.828088
85.27344	6865.532	22.78958	-82.80147	1.804142
85.32742	6860.889	22.85044	-84.50749	1.784378
85.38142	6856.085	22.9003	-86.20162	1.769181
85.43541	6851.118	22.93924	-87.8828	1.758793
85.4894	6845.98	22.97025	-89.5499	1.753337
85.54339	6840.663	22.99681	-91.20192	1.7528
85.59737	6835.175	23.02079	-92.83785	1.757042
85.65137	6829.527	23.04601	-94.45674	1.765801
85.70536	6823.743	23.06755	-96.05775	1.778671
85.75935	6817.834	23.0822	-97.64001	1.795149
85.81334	6811.815	23.09193	-99.20275	1.814643
85.86732	6805.699	23.10479	-100.7451	1.836572
85.92132	6799.502	23.12646	-102.2663	1.860343
85.97531	6793.232	23.16033	-103.7652	1.88538
86.0293	6786.897	23.20367	-105.2409	1.911145
86.08329	6780.489	23.24888	-106.6924	1.937138
86.13728	6774.006	23.2783	-108.1184	1.962896
86.19127	6767.441	23.27814	-109.518	1.98805
86.24526	6760.793	23.23635	-110.8899	2.012246
86.29925	6754.057	23.14647	-112.233	2.03522
86.35324	6747.239	23.00733	-113.5463	2.056738
86.40723	6740.345	22.82137	-114.8286	2.076589
86.46122	6733.392	22.58945	-116.0791	2.09462
86.51521	6726.398	22.31786	-117.2968	2.110693
86.5692	6719.381	22.02155	-118.4808	2.124755
86.62319	6712.346	21.71814	-119.6305	2.136747
86.67718	6705.305	21.42255	-120.7454	2.146686
86.73117	6698.261	21.14262	-121.825	2.154587
86.78516	6691.227	20.8763	-122.869	2.160484
86.83915	6684.201	20.6162	-123.8773	2.164409
86.89314	6677.189	20.35505	-124.85	2.166347
86.94713	6670.193	20.08604	-125.7873	2.166308
87.00112	6663.215	19.79879	-126.6894	2.164232
87.05511	6656.24	19.4853	-127.557	2.160055
87.1091	6649.258	19.14449	-128.3905	2.153694
87.16309	6642.265	18.78399	-129.1908	2.145048
87.21708	6635.263	18.41517	-129.9585	2.134047
87.27107	6628.249	18.04969	-130.6946	2.120641
87.32507	6621.221	17.70468	-131.4003	2.104827
87.37905	6614.171	17.40314	-132.0765	2.086642
87.43304	6607.089	17.16459	-132.7244	2.066212
87.48703	6599.96	16.99985	-133.3451	2.043677
87.54102	6592.782	16.91002	-133.9398	2.019252
87.59502	6585.564	16.89566	-134.5097	1.993126
87.649	6578.321	16.94252	-135.0557	1.965545
87.703	6571.058	17.02645	-135.5793	1.936729
87.75699	6563.768	17.12072	-136.0814	1.906904
87.81097	6556.435	17.21128	-136.5633	1.876337
87.86497	6549.048	17.29086	-137.026	1.845388
87.91895	6541.601	17.36018	-137.4705	1.814441
87.97295	6534.1	17.422	-137.8978	1.783966
88.02694	6526.559	17.47837	-138.3087	1.754519
88.08092	6518.988	17.52807	-138.704	1.726697
88.13492	6511.392	17.57066	-139.0843	1.701157
88.1889	6503.764	17.60873	-139.4502	1.678611
88.2429	6496.099	17.652	-139.8023	1.659739
88.29689	6488.389	17.70901	-140.1407	1.645247
88.35088	6480.634	17.77974	-140.466	1.635715
88.40487	6472.832	17.85474	-140.7784	1.63162
88.45885	6464.993	17.92095	-141.0779	1.633227
88.51285	6457.126	17.9683	-141.3648	1.640523
88.56684	6449.252	17.99416	-141.6391	1.653268
88.62083	6441.381	18.00446	-141.9009	1.671023
88.67482	6433.526	18.00293	-142.1501	1.693194
88.72881	6425.687	17.98442	-142.3867	1.719073
88.7828	6417.868	17.94051	-142.6108	1.747931
88.83679	6410.06	17.86553	-142.8223	1.778962
88.89078	6402.26	17.76184	-143.0212	1.811379
88.94477	6394.456	17.64027	-143.2075	1.844372
88.99876	6386.637	17.51666	-143.3811	1.877196
89.05275	6378.784	17.40504	-143.5421	1.90909
89.10674	6370.89	17.3139	-143.6904	1.939366
89.16073	6362.948	17.23896	-143.826	1.967401
89.21472	6354.971	17.164	-143.9489	1.992596
89.26871	6346.971	17.0717	-144.0591	2.014427
89.3227	6338.963	16.95319	-144.1566	2.032397
89.37669	6330.946	16.80848	-144.2417	2.046095
89.43068	6322.918	16.63763	-144.3143	2.055144
89.48467	6314.876	16.44727	-144.3748	2.05923
89.53866	6306.831	16.247	-144.4232	2.058105
89.59265	6298.784	16.05067	-144.4596	2.051553
89.64664	6290.747	15.86985	-144.4845	2.039433
89.70063	6282.722	15.71497	-144.498	2.021626
89.75462	6274.71	15.59178	-144.5004	1.998092
89.80861	6266.696	15.50063	-144.4922	1.968839
89.8626	6258.672	15.43895	-144.4739	1.933946
89.9166	6250.622	15.4012	-144.4457	1.893547
89.97058	6242.557	15.37683	-144.4084	1.847875
90.02457	6234.489	15.35262	-144.3622	1.797234
90.07856	6226.441	15.31547	-144.3078	1.741976
90.13255	6218.426	15.25564	-144.2458	1.682562
90.18655	6210.456	15.17098	-144.1769	1.619464
90.24053	6202.538	15.07068	-144.1016	1.553231
90.29453	6194.683	14.96152	-144.0208	1.484405
90.34851	6186.895	14.8458	-143.9353	1.413568
90.4025	6179.173	14.72358	-143.8459	1.341315
90.4565	6171.502	14.5985	-143.7536	1.268171
90.51048	6163.871	14.47716	-143.6593	1.194668
90.56448	6156.268	14.36857	-143.5639	1.121251
90.61846	6148.691	14.28161	-143.4683	1.048341
90.67245	6141.133	14.22021	-143.3732	0.9763483
90.72645	6133.593	14.17962	-143.2794	0.9056734
90.78043	6126.067	14.15234	-143.1875	0.8367555
90.83443	6118.547	14.12403	-143.0982	0.7700393
90.88841	6111.016	14.08118	-143.0121	0.7059718
90.94241	6103.467	14.01354	-142.9294	0.6450826
90.9964	6095.904	13.91855	-142.8508	0.5879731
91.05038	6088.336	13.80492	-142.7766	0.5353642
91.10438	6080.766	13.68786	-142.7072	0.4881328
91.15837	6073.191	13.58392	-142.6429	0.4472754
91.21236	6065.609	13.5045	-142.5839	0.4138812
91.26635	6058.022	13.45583	-142.5305	0.388919
91.32034	6050.425	13.44108	-142.4827	0.3731589
91.37433	6042.807	13.46227	-142.4406	0.3668847
91.42832	6035.155	13.52408	-142.4042	0.3698163
91.48231	6027.474	13.62324	-142.3736	0.3811386
91.5363	6019.775	13.7512	-142.3486	0.3996729
91.59029	6012.068	13.89641	-142.329	0.4241411
91.64428	6004.366	14.05166	-142.3147	0.4533261
91.69827	5996.684	14.2171	-142.3055	0.4862033
91.75226	5989.032	14.39072	-142.3011	0.5219695
91.80625	5981.415	14.57035	-142.3012	0.5599936
91.86024	5973.835	14.74692	-142.3055	0.5998115
91.91423	5966.292	14.91169	-142.3136	0.6411121
91.96822	5958.788	15.05831	-142.325	0.6836711
92.02221	5951.316	15.18073	-142.3394	0.7273479
92.0762	5943.874	15.27321	-142.3564	0.7720743
92.13019	5936.456	15.33492	-142.3755	0.8178006
92.18418	5929.056	15.37054	-142.3965	0.8645099
92.23817	5921.656	15.39062	-142.4189	0.9122072
92.29216	5914.24	15.40485	-142.4425	0.960874
92.34615	5906.791	15.41855	-142.4668	1.010496
92.40014	5899.298	15.43386	-142.4916	1.061036
92.45413	5891.749	15.45587	-142.5093	1.13556
92.50813	5884.144	15.48682	-142.5201	1.20935
92.56211	5876.481	15.52439	-142.5263	1.282175
92.6161	5868.768	15.55861	-142.5299	1.354023
92.67009	5861.018	15.58091	-142.5323	1.425052
92.72408	5853.25	15.58163	-142.5345	1.495428
92.77808	5845.462	15.54822	-142.5371	1.565363
92.83206	5837.646	15.47598	-142.5404	1.635041
92.88605	5829.78	15.3643	-142.5446	1.704634
92.94004	5821.851	15.21203	-142.5498	1.774284
92.99403	5813.852	15.02215	-142.5558	1.844109
93.04803	5805.796	14.80151	-142.5628	1.914214
93.10201	5797.694	14.56181	-142.5706	1.98468
93.15601	5789.56	14.31645	-142.5791	2.055565
93.20999	5781.409	14.07637	-142.5882	2.126929
93.26398	5773.269	13.84628	-142.5978	2.198789
93.31798	5765.155	13.62744	-142.6078	2.271189
93.37196	5757.092	13.41889	-142.6181	2.344137
93.42596	5749.091	13.21846	-142.6287	2.417662
93.47994	5741.167	13.0204	-142.6393	2.491761
93.53394	5733.316	12.81626	-142.6499	2.566424
93.58793	5725.531	12.59915	-142.6603	2.641672
93.64191	5717.8	12.36882	-142.6706	2.717483
93.69591	5710.114	12.13083	-142.6805	2.793845
93.74989	5702.464	11.89802	-142.69	2.870764
93.80389	5694.852	11.68322	-142.6991	2.948207
93.85788	5687.266	11.49231	-142.7076	3.026185
93.91187	5679.697	11.32864	-142.7154	3.104659
93.96586	5672.121	11.19366	-142.7225	3.183635
94.01984	5664.518	11.08636	-142.7288	3.263088
94.07384	5656.859	11.09978	-142.7343	3.342985
94.12783	5649.221	11.11906	-142.7388	3.423319
94.18182	5641.618	11.15016	-142.7425	3.504072
94.23581	5634.042	11.1934	-142.7451	3.585207
94.28979	5626.485	11.24766	-142.7466	3.666711
94.34379	5618.94	11.31319	-142.7471	3.748556
94.39778	5611.402	11.38881	-142.7466	3.830719
94.45177	5603.865	11.47474	-142.7449	3.913182
94.50576	5596.328	11.57182	-142.7421	3.995927
94.55975	5588.788	11.68014	-142.7381	4.078923
94.61374	5581.244	11.80005	-142.7331	4.162158
94.66773	5573.694	11.93207	-142.7269	4.24561
94.72172	5566.14	12.0751	-142.7195	4.329256
94.77571	5558.579	12.22928	-142.711	4.413095
94.8297	5551.012	12.39376	-142.7015	4.497099
94.88369	5543.438	12.5683	-142.6908	4.581255
94.93768	5535.859	12.75253	-142.6791	4.665561
94.99167	5528.278	12.94659	-142.6663	4.749989
