T[Â°C]	330nm [counts / mm]	S.D.	First derivative	S.D. of first derivative
20.00043	3173.104		-46.42071	
20.05438	3170.667		-46.34336	
20.10833	3168.23		-46.26579	
20.16228	3165.793		-46.18801	
20.21623	3163.355		-46.11	
20.27018	3160.917		-46.03177	
20.32413	3158.478		-45.95333	
20.37808	3156.038		-45.87468	
20.43203	3153.597		-45.79581	
20.48598	3151.155		-45.71674	
20.53993	3148.714		-45.63747	
20.59388	3146.275		-45.558	
20.64783	3143.839		-45.47835	
20.70178	3141.407		-45.39852	
20.75573	3138.981		-45.31851	
20.80968	3136.559		-45.23834	
20.86363	3134.144		-45.15801	
20.91758	3131.735		-45.07753	
20.97153	3129.336		-44.9969	
21.02547	3126.895		-44.91613	
21.07942	3124.431		-44.83523	
21.13337	3121.948		-44.7542	
21.18732	3119.454		-44.67303	
21.24127	3116.956		-44.59175	
21.29522	3114.462		-44.51035	
21.34917	3111.985		-44.42883	
21.40312	3109.537		-44.34719	
21.45707	3107.127		-44.26545	
21.51102	3104.758		-44.1836	
21.56497	3102.419		-44.10165	
21.61892	3100.094		-44.01959	
21.67287	3097.763		-43.93742	
21.72682	3095.412		-43.85514	
21.78077	3093.04		-43.77274	
21.83472	3090.652		-43.69022	
21.88867	3088.259		-43.60756	
21.94262	3085.872		-43.52476	
21.99657	3083.497		-43.44179	
22.05052	3081.138		-43.35865	
22.10447	3078.806		-43.27532	
22.15842	3076.501		-43.19176	
22.21237	3074.217		-43.10794	
22.26632	3071.952		-43.02379	
22.32026	3069.7		-42.93922	
22.37421	3067.452		-42.85408	
22.42816	3065.191		-42.76815	
22.48211	3062.902		-42.68113	
22.53606	3060.577		-42.5927	
22.59001	3058.216		-42.50261	
22.64396	3055.828		-42.41775	
22.69791	3053.433		-42.33545	
22.75186	3051.051		-42.25602	
22.80581	3048.691		-42.17975	
22.85976	3046.356		-42.10681	
22.91371	3044.046		-42.03734	
22.96766	3041.757		-41.97142	
23.02161	3039.485		-41.90905	
23.07556	3037.22		-41.85019	
23.12951	3034.956		-41.79473	
23.18346	3032.688		-41.74253	
23.23741	3030.416		-41.69342	
23.29136	3028.134		-41.64722	
23.34531	3025.846		-41.60377	
23.39926	3023.566		-41.56289	
23.45321	3021.308		-41.5244	
23.50716	3019.085		-41.48814	
23.56111	3016.906		-41.45397	
23.61506	3014.776		-41.42178	
23.669	3012.697		-41.39151	
23.72295	3010.663		-41.36312	
23.7769	3008.658		-41.33659	
23.83085	3006.666		-41.31188	
23.8848	3004.666		-41.28896	
23.93875	3002.646		-41.26778	
23.9927	3000.601		-41.24832	
24.04665	2998.531		-41.23053	
24.1006	2996.44		-41.2144	
24.15455	2994.33		-41.19989	
24.2085	2992.198		-41.18698	
24.26245	2990.047		-41.1757	
24.3164	2987.883		-41.16609	
24.37035	2985.712		-41.15823	
24.4243	2983.535		-41.15221	
24.47825	2981.351		-41.14811	
24.5322	2979.159		-41.14599	
24.58615	2976.951		-41.14592	
24.6401	2974.721		-41.14795	
24.69405	2972.473		-41.1521	
24.748	2970.207		-41.15833	
24.80194	2967.922		-41.16656	
24.8559	2965.616		-41.17664	
24.90985	2963.288		-41.18839	
24.96379	2960.936		-41.2016	
25.01774	2958.567		-41.21603	
25.07169	2956.188		-41.23143	
25.12564	2953.812		-41.24752	
25.17959	2951.45		-41.26403	
25.23354	2949.101		-41.28063	
25.28749	2946.766		-41.29699	
25.34144	2944.453		-41.31278	
25.39539	2942.173		-41.32765	
25.44934	2939.929		-41.3413	
25.50329	2937.715		-41.35346	
25.55724	2935.527		-41.36389	
25.61119	2933.363		-41.37239	
25.66514	2931.219		-41.37886	
25.71909	2929.09		-41.38321	
25.77304	2926.967		-41.38543	
25.82699	2924.83		-41.38551	
25.88094	2922.66		-41.38352	
25.93489	2920.445		-41.37956	
25.98884	2918.19		-41.37377	
26.04279	2915.907		-41.36629	
26.09674	2913.611		-41.35728	
26.15068	2911.308		-41.34687	
26.20463	2909		-41.33519	
26.25858	2906.693		-41.32234	
26.31253	2904.395		-41.30844	
26.36648	2902.107		-41.29358	
26.42043	2899.829		-41.27788	
26.47438	2897.559		-41.26147	
26.52833	2895.293		-41.24451	
26.58228	2893.021		-41.2271	
26.63623	2890.737		-41.20934	
26.69018	2888.441		-41.19128	
26.74413	2886.139		-41.17295	
26.79808	2883.834		-41.15433	
26.85203	2881.533		-41.13542	
26.90598	2879.24		-41.11623	
26.95993	2876.962		-41.09673	
27.01388	2874.707		-41.07691	
27.06783	2872.484		-41.05676	
27.12178	2870.305		-41.03626	
27.17573	2868.169		-41.01541	
27.22968	2866.069		-40.99424	
27.28363	2863.996		-40.97277	
27.33758	2861.945		-40.95102	
27.39153	2859.907		-40.92902	
27.44547	2857.872		-40.90681	
27.49942	2855.829		-40.88441	
27.55337	2853.766		-40.86185	
27.60732	2851.679		-40.83918	
27.66127	2849.569		-40.81644	
27.71522	2847.439		-40.79374	
27.76917	2845.299		-40.77115	
27.82312	2843.151		-40.74883	
27.87707	2840.993		-40.72694	
27.93102	2838.82		-40.70564	
27.98497	2836.629		-40.6851	
28.03892	2834.418		-40.66543	
28.09287	2832.19		-40.64674	
28.14682	2829.946		-40.6291	
28.20077	2827.681		-40.61253	
28.25472	2825.392		-40.59698	
28.30867	2823.086		-40.58235	
28.36262	2820.771		-40.56848	
28.41657	2818.453		-40.55513	
28.47052	2816.14		-40.54207	
28.52447	2813.835		-40.52902	
28.57842	2811.539		-40.51569	
28.63237	2809.254		-40.50174	
28.68632	2806.988		-40.48677	
28.74026	2804.744		-40.47041	
28.79421	2802.524		-40.45228	
28.84816	2800.326		-40.43205	
28.90211	2798.152		-40.40941	
28.95606	2795.995		-40.38409	
29.01001	2793.854		-40.35583	
29.06396	2791.719		-40.32444	
29.11791	2789.588		-40.28976	
29.17186	2787.459		-40.25167	
29.22581	2785.34		-40.21015	
29.27976	2783.235		-40.16522	
29.33371	2781.146		-40.11694	
29.38766	2779.072		-40.06543	
29.44161	2777.006		-40.01085	
29.49556	2774.94		-39.95341	
29.54951	2772.87		-39.8934	
29.60346	2770.793		-39.83117	
29.65741	2768.702		-39.76714	
29.71136	2766.587		-39.70176	
29.76531	2764.439		-39.63553	
29.81926	2762.252		-39.56898	
29.87321	2760.022		-39.50265	
29.92716	2757.751		-39.4371	
29.98111	2755.444		-39.37286	
30.03506	2753.11		-39.31043	
30.089	2750.763		-39.25027	
30.14295	2748.421		-39.19282	
30.1969	2746.092		-39.13843	
30.25085	2743.781		-39.08737	
30.3048	2741.491		-39.0398	
30.35875	2739.229		-38.99576	
30.4127	2736.999		-38.95523	
30.46665	2734.809		-38.91813	
30.5206	2732.663		-38.88432	
30.57455	2730.56		-38.85367	
30.6285	2728.498		-38.82602	
30.68245	2726.473		-38.80122	
30.7364	2724.474		-38.77911	
30.79035	2722.5		-38.75956	
30.8443	2720.547		-38.74242	
30.89825	2718.617		-38.72755	
30.9522	2716.709		-38.71483	
31.00615	2714.823		-38.7041	
31.0601	2712.955		-38.6952	
31.11405	2711.104		-38.688	
31.168	2709.267		-38.68235	
31.22194	2707.439		-38.67813	
31.2759	2705.616		-38.67521	
31.32985	2703.787		-38.67348	
31.38379	2701.938		-38.67281	
31.43774	2700.055		-38.67311	
31.49169	2698.131		-38.67427	
31.54564	2696.165		-38.67624	
31.59959	2694.157		-38.67897	
31.65354	2692.109		-38.68249	
31.70749	2690.033		-38.68684	
31.76144	2687.938		-38.69206	
31.81539	2685.829		-38.69822	
31.86934	2683.71		-38.70539	
31.92329	2681.585		-38.71362	
31.97724	2679.455		-38.72293	
32.03119	2677.318		-38.73335	
32.08514	2675.179		-38.74485	
32.13909	2673.03		-38.75738	
32.19304	2670.866		-38.7708	
32.24699	2668.686		-38.78489	
32.30094	2666.492		-38.79934	
32.35489	2664.288		-38.81372	
32.40884	2662.078		-38.82763	
32.46279	2659.863		-38.8406	
32.51674	2657.645		-38.8522	
32.57069	2655.43		-38.86208	
32.62463	2653.223		-38.86992	
32.67859	2651.027		-38.87552	
32.73253	2648.849		-38.87875	
32.78648	2646.702		-38.87954	
32.84043	2644.594		-38.87786	
32.89438	2642.529		-38.87377	
32.94833	2640.499		-38.86733	
33.00228	2638.479		-38.85866	
33.05623	2636.445		-38.8479	
33.11018	2634.378		-38.83524	
33.16413	2632.264		-38.82087	
33.21808	2630.101		-38.80499	
33.27203	2627.885		-38.78778	
33.32598	2625.623		-38.76946	
33.37993	2623.329		-38.75023	
33.43388	2621.025		-38.73027	
33.48783	2618.735		-38.70978	
33.54178	2616.473		-38.68893	
33.59573	2614.247		-38.66788	
33.64968	2612.061		-38.64678	
33.70362	2609.911		-38.6258	
33.75758	2607.787		-38.60506	
33.81153	2605.677		-38.58468	
33.86547	2603.573		-38.56479	
33.91943	2601.465		-38.54543	
33.97337	2599.349		-38.52667	
34.02732	2597.231		-38.50851	
34.08127	2595.118		-38.49097	
34.13522	2593.013		-38.47403	
34.18917	2590.918		-38.45763	
34.24312	2588.841		-38.44169	
34.29707	2586.793		-38.42608	
34.35102	2584.79		-38.4106	
34.40497	2582.838		-38.39506	
34.45892	2580.945		-38.37921	
34.51287	2579.113		-38.36281	
34.56682	2577.338		-38.3456	
34.62077	2575.611		-38.32737	
34.67472	2573.907		-38.3079	
34.72867	2572.198		-38.28702	
34.78262	2570.46		-38.26463	
34.83657	2568.684		-38.24065	
34.89052	2566.865		-38.21507	
34.94447	2565.004		-38.18794	
34.99842	2563.096		-38.15934	
35.05236	2561.146		-38.12944	
35.10632	2559.157		-38.09841	
35.16026	2557.128		-38.06647	
35.21421	2555.056		-38.03385	
35.26817	2552.935		-38.00078	
35.32211	2550.766		-37.96752	
35.37606	2548.558		-37.93433	
35.43001	2546.326		-37.90146	
35.48396	2544.085		-37.86914	
35.53791	2541.844		-37.83755	
35.59186	2539.611		-37.80682	
35.64581	2537.386		-37.77702	
35.69976	2535.167		-37.74815	
35.75371	2532.957		-37.72016	
35.80766	2530.755		-37.69297	
35.86161	2528.558		-37.66641	
35.91556	2526.361		-37.64033	
35.96951	2524.161		-37.61449	
36.02346	2521.958		-37.58868	
36.07741	2519.756		-37.56264	
36.13136	2517.562		-37.53612	
36.18531	2515.384		-37.50888	
36.23926	2513.232		-37.48068	
36.29321	2511.116		-37.45133	
36.34716	2509.041		-37.42065	
36.4011	2507.005		-37.38846	
36.45506	2505.005		-37.3546	
36.509	2503.041		-37.31892	
36.56295	2501.109		-37.28124	
36.61691	2499.202		-37.24142	
36.67085	2497.301		-37.19933	
36.7248	2495.385		-37.15482	
36.77875	2493.441		-37.10784	
36.8327	2491.464		-37.05835	
36.88665	2489.459		-37.00637	
36.9406	2487.432		-36.95197	
36.99455	2485.395		-36.89525	
37.0485	2483.363		-36.8364	
37.10245	2481.349		-36.77568	
37.1564	2479.359		-36.71339	
37.21035	2477.397		-36.64988	
37.2643	2475.456		-36.58551	
37.31825	2473.527		-36.52069	
37.3722	2471.604		-36.45586	
37.42615	2469.688		-36.39147	
37.48009	2467.781		-36.32796	
37.53405	2465.884		-36.26574	
37.588	2463.996		-36.20517	
37.64194	2462.114		-36.14656	
37.6959	2460.241		-36.09017	
37.74984	2458.387		-36.0362	
37.80379	2456.557		-35.98485	
37.85774	2454.751		-35.93631	
37.91169	2452.961		-35.89074	
37.96564	2451.176		-35.84834	
38.01959	2449.379		-35.80923	
38.07354	2447.561		-35.77351	
38.12749	2445.717		-35.74123	
38.18144	2443.85		-35.71237	
38.23539	2441.963		-35.68689	
38.28934	2440.057		-35.66466	
38.34329	2438.131		-35.64553	
38.39724	2436.187		-35.62928	
38.45119	2434.233		-35.61566	
38.50514	2432.277		-35.60437	
38.55909	2430.328		-35.5951	
38.61304	2428.394		-35.58754	
38.66699	2426.477		-35.58137	
38.72094	2424.571		-35.57628	
38.77489	2422.668		-35.57198	
38.82883	2420.758		-35.56816	
38.88279	2418.829		-35.56457	
38.93674	2416.876		-35.56092	
38.99068	2414.901		-35.55698	
39.04464	2412.91		-35.55256	
39.09858	2410.915		-35.54749	
39.15253	2408.926		-35.54165	
39.20648	2406.948		-35.53492	
39.26043	2404.989		-35.52717	
39.31438	2403.049		-35.5183	
39.36833	2401.127		-35.50823	
39.42228	2399.224		-35.49689	
39.47623	2397.339		-35.48427	
39.53018	2395.467		-35.47036	
39.58413	2393.594		-35.45517	
39.63808	2391.705		-35.43869	
39.69203	2389.788		-35.42091	
39.74598	2387.839		-35.40184	
39.79993	2385.865		-35.38149	
39.85388	2383.888		-35.35998	
39.90783	2381.921		-35.33747	
39.96178	2379.969		-35.31422	
40.01573	2378.026		-35.29051	
40.06968	2376.088		-35.26668	
40.12363	2374.154		-35.24305	
40.17757	2372.224		-35.21997	
40.23153	2370.293		-35.19775	
40.28548	2368.361		-35.17667	
40.33942	2366.428		-35.15694	
40.39338	2364.49		-35.13867	
40.44732	2362.547		-35.12188	
40.50127	2360.593		-35.10648	
40.55522	2358.629		-35.09232	
40.60917	2356.657		-35.07919	
40.66312	2354.684		-35.06688	
40.71707	2352.717		-35.05513	
40.77102	2350.768		-35.04369	
40.82497	2348.846		-35.03234	
40.87892	2346.955		-35.02089	
40.93287	2345.094		-35.00917	
40.98682	2343.263		-34.99712	
41.04077	2341.461		-34.9847	
41.09472	2339.682		-34.97195	
41.14867	2337.917		-34.95892	
41.20262	2336.16		-34.94568	
41.25657	2334.406		-34.93231	
41.31052	2332.645		-34.91886	
41.36447	2330.875		-34.9054	
41.41842	2329.099		-34.89199	
41.47237	2327.321		-34.87874	
41.52631	2325.551		-34.86578	
41.58027	2323.791		-34.85325	
41.63422	2322.04		-34.84126	
41.68816	2320.288		-34.82991	
41.74212	2318.524		-34.81928	
41.79606	2316.747		-34.80944	
41.85001	2314.957		-34.80044	
41.90396	2313.159		-34.79239	
41.95791	2311.347		-34.78538	
42.01186	2309.506		-34.77951	
42.06581	2307.627		-34.77487	
42.11976	2305.705		-34.77148	
42.17371	2303.747		-34.76937	
42.22766	2301.764		-34.76854	
42.28161	2299.767		-34.76894	
42.33556	2297.76		-34.77052	
42.38951	2295.748		-34.77319	
42.44346	2293.729		-34.77675	
42.49741	2291.707		-34.78093	
42.55136	2289.681		-34.78535	
42.60531	2287.657		-34.7896	
42.65926	2285.643		-34.79319	
42.71321	2283.641		-34.79559	
42.76715	2281.653		-34.79626	
42.82111	2279.677		-34.79461	
42.87505	2277.713		-34.79008	
42.929	2275.767		-34.78211	
42.98295	2273.851		-34.7702	
43.0369	2271.975		-34.75392	
43.09085	2270.144		-34.73294	
43.1448	2268.356		-34.70707	
43.19875	2266.604		-34.6762	
43.2527	2264.879		-34.64034	
43.30665	2263.172		-34.59957	
43.3606	2261.468		-34.5541	
43.41455	2259.75		-34.50418	
43.4685	2258.007		-34.45011	
43.52245	2256.23		-34.3923	
43.5764	2254.415		-34.3312	
43.63035	2252.553		-34.2673	
43.6843	2250.644		-34.20114	
43.73825	2248.692		-34.13327	
43.7922	2246.712		-34.06422	
43.84615	2244.727		-33.99455	
43.9001	2242.761		-33.92477	
43.95405	2240.823		-33.85539	
44.008	2238.906		-33.78688	
44.06195	2236.992		-33.71965	
44.11589	2235.065		-33.65406	
44.16985	2233.117		-33.59041	
44.22379	2231.144		-33.52895	
44.27774	2229.147		-33.46988	
44.33169	2227.132		-33.41338	
44.38564	2225.11		-33.35961	
44.43959	2223.092		-33.30868	
44.49354	2221.087		-33.26067	
44.54749	2219.113		-33.21559	
44.60144	2217.19		-33.17345	
44.65539	2215.34		-33.13428	
44.70934	2213.577		-33.09809	
44.76329	2211.908		-33.06485	
44.81724	2210.328		-33.03445	
44.87119	2208.823		-33.0067	
44.92514	2207.369		-32.98133	
44.97909	2205.94		-32.95801	
45.03304	2204.513		-32.93635	
45.08699	2203.07		-32.91597	
45.14094	2201.591		-32.89651	
45.19489	2200.064		-32.87767	
45.24884	2198.487		-32.85921	
45.30278	2196.864		-32.84094	
45.35674	2195.205		-32.82275	
45.41069	2193.528		-32.80462	
45.46463	2191.856		-32.78661	
45.51859	2190.203		-32.76885	
45.57253	2188.574		-32.75155	
45.62648	2186.959		-32.73499	
45.68043	2185.338		-32.71949	
45.73438	2183.688		-32.70537	
45.78833	2181.992		-32.69297	
45.84228	2180.24		-32.68257	
45.89623	2178.434		-32.67439	
45.95018	2176.585		-32.6686	
46.00413	2174.706		-32.66531	
46.05808	2172.805		-32.66459	
46.11203	2170.894		-32.66645	
46.16598	2168.975		-32.67081	
46.21993	2167.054		-32.67759	
46.27388	2165.142		-32.68664	
46.32783	2163.253		-32.69781	
46.38178	2161.397		-32.71092	
46.43573	2159.577		-32.72574	
46.48968	2157.786		-32.74199	
46.54362	2156.016		-32.75936	
46.59758	2154.255		-32.77752	
46.65152	2152.488		-32.79613	
46.70547	2150.701		-32.8149	
46.75943	2148.896		-32.83348	
46.81337	2147.077		-32.85152	
46.86732	2145.256		-32.86863	
46.92127	2143.434		-32.88439	
46.97522	2141.615		-32.89837	
47.02917	2139.802		-32.91017	
47.08312	2137.997		-32.91939	
47.13707	2136.198		-32.92568	
47.19102	2134.4		-32.92873	
47.24497	2132.595		-32.92826	
47.29892	2130.778		-32.92406	
47.35287	2128.948		-32.91595	
47.40682	2127.11		-32.90385	
47.46077	2125.269		-32.88773	
47.51472	2123.432		-32.86765	
47.56867	2121.604		-32.84377	
47.62262	2119.79		-32.81631	
47.67657	2117.991		-32.78561	
47.73052	2116.204		-32.752	
47.78447	2114.424		-32.71592	
47.83842	2112.642		-32.67779	
47.89236	2110.856		-32.63811	
47.94632	2109.068		-32.59738	
48.00026	2107.281		-32.55613	
48.05421	2105.502		-32.51484	
48.10817	2103.739		-32.474	
48.16211	2101.99		-32.43401	
48.21606	2100.251		-32.39523	
48.27001	2098.518		-32.35804	
48.32396	2096.789		-32.32275	
48.37791	2095.069		-32.28971	
48.43186	2093.362		-32.25926	
48.48581	2091.673		-32.23167	
48.53976	2090.002		-32.20715	
48.59371	2088.344		-32.18586	
48.64766	2086.694		-32.16785	
48.70161	2085.047		-32.15307	
48.75556	2083.394		-32.14143	
48.80951	2081.724		-32.13276	
48.86346	2080.029		-32.12684	
48.91741	2078.304		-32.12339	
48.97136	2076.553		-32.12208	
49.02531	2074.789		-32.12257	
49.07926	2073.024		-32.12448	
49.13321	2071.27		-32.12742	
49.18716	2069.532		-32.13099	
49.2411	2067.807		-32.13475	
49.29506	2066.094		-32.13832	
49.349	2064.394		-32.1413	
49.40295	2062.714		-32.14328	
49.45691	2061.056		-32.14388	
49.51085	2059.425		-32.14267	
49.5648	2057.816		-32.13924	
49.61875	2056.224		-32.13321	
49.6727	2054.64		-32.12415	
49.72665	2053.054		-32.11169	
49.7806	2051.457		-32.09552	
49.83455	2049.839		-32.07544	
49.8885	2048.194		-32.05132	
49.94245	2046.516		-32.02321	
49.9964	2044.808		-31.99122	
50.05035	2043.078		-31.95554	
50.1043	2041.334		-31.9164	
50.15825	2039.581		-31.87406	
50.2122	2037.82		-31.82879	
50.26615	2036.055		-31.78088	
50.3201	2034.286		-31.73065	
50.37405	2032.518		-31.67846	
50.428	2030.743		-31.62471	
50.48195	2028.951		-31.56981	
50.5359	2027.131		-31.51415	
50.58984	2025.274		-31.45807	
50.6438	2023.384		-31.40187	
50.69774	2021.465		-31.34585	
50.75169	2019.527		-31.29022	
50.80564	2017.579		-31.2352	
50.85959	2015.629		-31.18101	
50.91354	2013.679		-31.12781	
50.96749	2011.73		-31.07576	
51.02144	2009.785		-31.02493	
51.07539	2007.856		-30.97536	
51.12934	2005.957		-30.92705	
51.18329	2004.097		-30.87993	
51.23724	2002.283		-30.83389	
51.29119	2000.517		-30.7888	
51.34514	1998.8		-30.74449	
51.39909	1997.131		-30.70075	
51.45304	1995.509		-30.65742	
51.50699	1993.928		-30.61432	
51.56094	1992.383		-30.57126	
51.61489	1990.866		-30.52807	
51.66883	1989.369		-30.48461	
51.72279	1987.891		-30.44072	
51.77674	1986.432		-30.3963	
51.83068	1984.994		-30.35136	
51.88464	1983.575		-30.30595	
51.93858	1982.171		-30.26025	
51.99253	1980.784		-30.21448	
52.04648	1979.411		-30.16895	
52.10043	1978.049		-30.12397	
52.15438	1976.692		-30.07993	
52.20833	1975.337		-30.03719	
52.26228	1973.981		-29.99611	
52.31623	1972.622		-29.95705	
52.37018	1971.251		-29.92037	
52.42413	1969.851		-29.88637	
52.47808	1968.407		-29.85536	
52.53203	1966.907		-29.82757	
52.58598	1965.34		-29.8032	
52.63993	1963.711		-29.7824	
52.69388	1962.029		-29.76527	
52.74783	1960.313		-29.75187	
52.80178	1958.588		-29.74223	
52.85573	1956.871		-29.73633	
52.90968	1955.168		-29.7341	
52.96363	1953.479		-29.73543	
53.01757	1951.807		-29.74015	
53.07153	1950.155		-29.74802	
53.12548	1948.525		-29.75875	
53.17942	1946.91		-29.77204	
53.23338	1945.301		-29.78747	
53.28732	1943.688		-29.80462	
53.34127	1942.062		-29.82294	
53.39522	1940.417		-29.84189	
53.44917	1938.754		-29.86084	
53.50312	1937.077		-29.87919	
53.55707	1935.395		-29.89637	
53.61102	1933.717		-29.91186	
53.66497	1932.052		-29.92518	
53.71892	1930.405		-29.93595	
53.77287	1928.783		-29.94384	
53.82682	1927.186		-29.94865	
53.88077	1925.614		-29.95023	
53.93472	1924.053		-29.94855	
53.98867	1922.488		-29.94363	
54.04262	1920.898		-29.93556	
54.09657	1919.268		-29.92449	
54.15052	1917.588		-29.91062	
54.20447	1915.859		-29.89419	
54.25842	1914.093		-29.87547	
54.31237	1912.301		-29.85474	
54.36631	1910.498		-29.83228	
54.42027	1908.696		-29.80839	
54.47421	1906.904		-29.78337	
54.52816	1905.129		-29.7575	
54.58212	1903.371		-29.73106	
54.63606	1901.626		-29.70432	
54.69001	1899.891		-29.67753	
54.74396	1898.171		-29.65089	
54.79791	1896.475		-29.62456	
54.85186	1894.808		-29.59866	
54.90581	1893.167		-29.57324	
54.95976	1891.547		-29.54829	
55.01371	1889.942		-29.52375	
55.06766	1888.351		-29.49953	
55.12161	1886.778		-29.47552	
55.17556	1885.227		-29.45161	
55.22951	1883.701		-29.42766	
55.28346	1882.202		-29.40353	
55.33741	1880.735		-29.37907	
55.39136	1879.305		-29.35408	
55.44531	1877.909		-29.32834	
55.49926	1876.538		-29.30163	
55.55321	1875.181		-29.27375	
55.60715	1873.827		-29.24455	
55.66111	1872.465		-29.21391	
55.71505	1871.087		-29.18176	
55.769	1869.685		-29.14807	
55.82295	1868.263		-29.11286	
55.8769	1866.823		-29.07622	
55.93085	1865.373		-29.03827	
55.9848	1863.92		-28.99919	
56.03875	1862.467		-28.95917	
56.0927	1861.005		-28.91846	
56.14665	1859.525		-28.87731	
56.2006	1858.022		-28.83604	
56.25455	1856.489		-28.79495	
56.3085	1854.923		-28.75438	
56.36245	1853.321		-28.71466	
56.4164	1851.683		-28.6761	
56.47035	1850.016		-28.63898	
56.5243	1848.332		-28.60355	
56.57825	1846.641		-28.57	
56.6322	1844.95		-28.53852	
56.68615	1843.259		-28.50926	
56.7401	1841.571		-28.48231	
56.79404	1839.889		-28.45775	
56.848	1838.219		-28.43557	
56.90195	1836.564		-28.41573	
56.95589	1834.923		-28.39809	
57.00985	1833.292		-28.38248	
57.06379	1831.672		-28.36864	
57.11774	1830.06		-28.35628	
57.17169	1828.454		-28.34506	
57.22564	1826.85		-28.33459	
57.27959	1825.244		-28.3245	
57.33354	1823.638		-28.31436	
57.38749	1822.036		-28.30378	
57.44144	1820.444		-28.29235	
57.49539	1818.866		-28.27968	
57.54934	1817.308		-28.26545	
57.60329	1815.773		-28.24932	
57.65724	1814.27		-28.23103	
57.71119	1812.8		-28.21034	
57.76514	1811.362		-28.18703	
57.81909	1809.947		-28.16093	
57.87304	1808.544		-28.13188	
57.92699	1807.145		-28.09977	
57.98094	1805.745		-28.0645	
58.03489	1804.334		-28.02602	
58.08884	1802.91		-27.98429	
58.14278	1801.471		-27.93937	
58.19674	1800.023		-27.8913	
58.25069	1798.569		-27.84022	
58.30463	1797.109		-27.78632	
58.35859	1795.642		-27.72979	
58.41253	1794.169		-27.67091	
58.46648	1792.69		-27.60993	
58.52043	1791.209		-27.54713	
58.57438	1789.73		-27.48277	
58.62833	1788.259		-27.41715	
58.68228	1786.795		-27.35055	
58.73623	1785.335		-27.28329	
58.79018	1783.875		-27.21569	
58.84413	1782.414		-27.14813	
58.89808	1780.947		-27.08094	
58.95203	1779.472		-27.01448	
59.00598	1777.987		-26.94905	
59.05993	1776.496		-26.88496	
59.11388	1775.003		-26.82248	
59.16783	1773.51		-26.76184	
59.22178	1772.017		-26.70323	
59.27573	1770.527		-26.64681	
59.32968	1769.041		-26.59271	
59.38363	1767.557		-26.54103	
59.43758	1766.073		-26.49185	
59.49152	1764.59		-26.44518	
59.54548	1763.107		-26.40102	
59.59943	1761.624		-26.35937	
59.65337	1760.14		-26.32018	
59.70732	1758.657		-26.28336	
59.76127	1757.179		-26.24879	
59.81522	1755.712		-26.21629	
59.86917	1754.261		-26.18563	
59.92312	1752.828		-26.15655	
59.97707	1751.409		-26.12871	
60.03102	1749.998		-26.10173	
60.08497	1748.589		-26.07522	
60.13892	1747.181		-26.04875	
60.19287	1745.775		-26.0219	
60.24682	1744.371		-25.99423	
60.30077	1742.972		-25.96532	
60.35472	1741.583		-25.93476	
60.40867	1740.21		-25.90216	
60.46262	1738.855		-25.86714	
60.51657	1737.521		-25.82935	
60.57052	1736.214		-25.78845	
60.62447	1734.935		-25.74419	
60.67842	1733.683		-25.69634	
60.73236	1732.453		-25.64476	
60.78632	1731.24		-25.58934	
60.84026	1730.033		-25.53007	
60.89421	1728.821		-25.46692	
60.94817	1727.592		-25.39996	
61.00211	1726.341		-25.32927	
61.05606	1725.065		-25.25497	
61.11001	1723.764		-25.17722	
61.16396	1722.44		-25.0962	
61.21791	1721.096		-25.0121	
61.27186	1719.733		-24.9251	
61.32581	1718.352		-24.83542	
61.37976	1716.951		-24.74327	
61.43371	1715.532		-24.64886	
61.48766	1714.101		-24.55243	
61.54161	1712.667		-24.45416	
61.59556	1711.232		-24.35427	
61.64951	1709.795		-24.2529	
61.70346	1708.351		-24.15018	
61.75741	1706.896		-24.04614	
61.81136	1705.434		-23.94081	
61.86531	1703.962		-23.83412	
61.91926	1702.481		-23.72596	
61.97321	1700.993		-23.61619	
62.02716	1699.507		-23.50463	
62.0811	1698.025		-23.39112	
62.13506	1696.546		-23.27545	
62.189	1695.074		-23.15741	
62.24295	1693.616		-23.03677	
62.2969	1692.179		-22.91328	
62.35085	1690.778		-22.78666	
62.4048	1689.419		-22.6566	
62.45875	1688.116		-22.52279	
62.5127	1686.871		-22.38487	
62.56665	1685.684		-22.24253	
62.6206	1684.544		-22.09546	
62.67455	1683.446		-21.94341	
62.7285	1682.38		-21.78611	
62.78245	1681.338		-21.62339	
62.8364	1680.31		-21.45504	
62.89035	1679.289		-21.28093	
62.9443	1678.266		-21.101	
62.99825	1677.237		-20.91517	
63.0522	1676.202		-20.72343	
63.10615	1675.164		-20.52575	
63.1601	1674.125		-20.32214	
63.21405	1673.088		-20.11255	
63.268	1672.054		-19.89695	
63.32195	1671.022		-19.67528	
63.3759	1669.987		-19.44741	
63.42984	1668.95		-19.21327	
63.4838	1667.909		-18.97274	
63.53774	1666.865		-18.7257	
63.59169	1665.818		-18.47195	
63.64564	1664.767		-18.21129	
63.69959	1663.713		-17.94338	
63.75354	1662.66		-17.66787	
63.80749	1661.615		-17.38433	
63.86144	1660.58		-17.09223	
63.91539	1659.554		-16.79107	
63.96934	1658.541		-16.48025	
64.02329	1657.542		-16.15922	
64.07724	1656.562		-15.8274	
64.13119	1655.608		-15.48411	
64.18514	1654.688		-15.12864	
64.23909	1653.805		-14.76035	
64.29304	1652.958		-14.3784	
64.34698	1652.145		-13.98198	
64.40094	1651.359		-13.5702	
64.45489	1650.593		-13.14229	
64.50883	1649.843		-12.69726	
64.56278	1649.102		-12.23425	
64.61674	1648.367		-11.75222	
64.67068	1647.637		-11.25034	
64.72463	1646.908		-10.72757	
64.77859	1646.176		-10.18291	
64.83253	1645.438		-9.615552	
64.88648	1644.697		-9.024508	
64.94043	1643.955		-8.40896	
64.99438	1643.22		-7.768014	
65.04833	1642.498		-7.10105	
65.10228	1641.793		-6.407214	
65.15623	1641.108		-5.685668	
65.21018	1640.444		-4.935872	
65.26413	1639.807		-4.156932	
65.31808	1639.2		-3.34815	
65.37203	1638.626		-2.508642	
65.42598	1638.089		-1.637925	
65.47993	1637.589		-0.7351105	
65.53387	1637.127		0.2004656	
65.58783	1636.707		1.169648	
65.64178	1636.338		2.172908	
65.69572	1636.027		3.2111	
65.74968	1635.787		4.285057	
65.80363	1635.628		5.395181	
65.85757	1635.561		6.542361	
65.91152	1635.589		7.727196	
65.96548	1635.709		8.950481	
66.01942	1635.908		10.21251	
66.07337	1636.176		11.51404	
66.12733	1636.503		12.85583	
66.18127	1636.889		14.23812	
66.23522	1637.334		15.66178	
66.28917	1637.843		17.12742	
66.34312	1638.421		18.63597	
66.39707	1639.075		20.18777	
66.45102	1639.811		21.78385	
66.50497	1640.635		23.42522	
66.55892	1641.549		25.11225	
66.61287	1642.555		26.84607	
66.66682	1643.652		28.62763	
66.72077	1644.841		30.45801	
66.77472	1646.121		32.33759	
66.82867	1647.493		34.26773	
66.88261	1648.956		36.2492	
66.93657	1650.51		38.28328	
66.99052	1652.157		40.37025	
67.04446	1653.897		42.51146	
67.09842	1655.73		44.70791	
67.15237	1657.66		46.95987	
67.20631	1659.694		49.26842	
67.26026	1661.846		51.63436	
67.31422	1664.131		54.05877	
67.36816	1666.565		56.54163	
67.42211	1669.156		59.08416	
67.47607	1671.907		61.6872	
67.53001	1674.811		64.35068	
67.58396	1677.866		67.07552	
67.63791	1681.067		69.86227	
67.69186	1684.412		72.7118	
67.74581	1687.899		75.62366	
67.79976	1691.526		78.5988	
67.85371	1695.295		81.63774	
67.90766	1699.214		84.7399	
67.96161	1703.288		87.90579	
68.01556	1707.52		91.13569	
68.06951	1711.909		94.42989	
68.12346	1716.449		97.78753	
68.17741	1721.142		101.209	
68.23135	1725.99		104.6942	
68.28531	1730.996		108.2434	
68.33926	1736.162		111.8555	
68.3932	1741.494		115.531	
68.44716	1746.993		119.27	
68.50111	1752.667		123.0712	
68.55505	1758.518		126.9351	
68.609	1764.553		130.8613	
68.66296	1770.783		134.85	
68.7169	1777.22		138.8999	
68.77085	1783.879		143.0113	
68.82481	1790.78		147.1845	
68.87875	1797.939		151.418	
68.9327	1805.376		155.7123	
68.98665	1813.103		160.0672	
69.0406	1821.127		164.4831	
69.09455	1829.442		168.9583	
69.1485	1838.044		173.4932	
69.20245	1846.932		178.0873	
69.2564	1856.111		182.7408	
69.31035	1865.583		187.4514	
69.3643	1875.353		192.2191	
69.41825	1885.424		197.0434	
69.4722	1895.797		201.9215	
69.52615	1906.477		206.8523	
69.58009	1917.457		211.8336	
69.63405	1928.73		216.8636	
69.688	1940.285		221.9379	
69.74194	1952.117		227.0539	
69.7959	1964.228		232.2081	
69.84985	1976.621		237.3945	
69.90379	1989.303		242.6089	
69.95774	2002.275		247.8454	
70.0117	2015.532		253.0986	
70.06564	2029.061		258.3602	
70.11959	2042.862		263.6235	
70.17355	2056.934		268.8813	
70.22749	2071.274		274.1233	
70.28144	2085.888		279.3411	
70.33539	2100.785		284.5251	
70.38934	2115.979		289.6654	
70.44329	2131.472		294.7501	
70.49724	2147.277		299.7685	
70.55119	2163.401		304.7093	
70.60514	2179.861		309.5612	
70.65909	2196.665		314.3111	
70.71304	2213.831		318.9472	
70.76699	2231.365		323.4582	
70.82094	2249.258		327.8307	
70.87489	2267.5		332.0535	
70.92883	2286.083		336.1147	
70.98279	2305.006		340.0034	
71.03674	2324.26		343.7077	
71.09068	2343.835		347.2167	
71.14464	2363.727		350.5214	
71.19859	2383.923		353.6109	
71.25253	2404.435		356.4766	
71.30648	2425.273		359.1101	
71.36044	2446.458		361.5039	
71.41438	2467.999		363.6506	
71.46833	2489.915		365.5434	
71.52228	2512.217		367.1773	
71.57623	2534.904		368.5475	
71.63018	2557.958		369.6496	
71.68413	2581.356		370.4796	
71.73808	2605.072		371.0357	
71.79203	2629.068		371.3155	
71.84598	2653.316		371.3178	
71.89993	2677.788		371.0422	
71.95388	2702.454		370.4886	
72.00783	2727.26		369.6584	
72.06178	2752.166		368.5519	
72.11573	2777.136		367.1721	
72.16968	2802.129		365.5217	
72.22363	2827.111		363.6038	
72.27757	2852.044		361.4223	
72.33153	2876.888		358.9809	
72.38548	2901.584		356.2855	
72.43942	2926.08		353.3398	
72.49338	2950.322		350.15	
72.54733	2974.244		346.7229	
72.60127	2997.79		343.0648	
72.65522	3020.898		339.1819	
72.70918	3043.515		335.0817	
72.76312	3065.577		330.7732	
72.81707	3087.033		326.2632	
72.87102	3107.833		321.5609	
72.92497	3127.957		316.6743	
72.97892	3147.39		311.6143	
73.03287	3166.142		306.3891	
73.08682	3184.221		301.0085	
73.14077	3201.629		295.4842	
73.19472	3218.37		289.826	
73.24866	3234.449		284.0451	
73.30262	3249.883		278.1518	
73.35657	3264.689		272.1597	
73.41051	3278.886		266.0796	
73.46447	3292.492		259.9232	
73.51842	3305.509		253.7047	
73.57236	3317.94		247.4358	
73.62631	3329.784		241.1293	
73.68027	3341.05		234.7972	
73.73421	3351.746		228.4543	
73.78816	3361.898		222.1124	
73.84212	3371.535		215.7834	
73.89606	3380.697		209.4815	
73.95001	3389.413		203.218	
74.00396	3397.71		197.005	
74.05791	3405.613		190.8529	
74.11186	3413.145		184.7746	
74.16581	3420.327		178.7798	
74.21976	3427.181		172.8786	
74.27371	3433.726		167.0795	
74.32766	3439.981		161.3927	
74.38161	3445.961		155.826	
74.43556	3451.672		150.3854	
74.48951	3457.109		145.079	
74.54346	3462.281		139.9119	
74.5974	3467.206		134.889	
74.65136	3471.917		130.0136	
74.70531	3476.449		125.2901	
74.75925	3480.836		120.7207	
74.81321	3485.11		116.3056	
74.86716	3489.288		112.0471	
74.9211	3493.386		107.944	
74.97505	3497.412		103.9955	
75.02901	3501.37		100.1992	
75.08295	3505.266		96.55342	
75.1369	3509.107		93.05515	
75.19085	3512.893		89.70028	
75.2448	3516.625		86.48444	
75.29875	3520.293		83.40405	
75.3527	3523.887		80.45432	
75.40665	3527.391		77.62965	
75.4606	3530.796		74.92596	
75.51455	3534.105		72.33772	
75.5685	3537.323		69.85978	
75.62245	3540.458		67.48671	
75.6764	3543.525		65.21406	
75.73035	3546.533		63.03679	
75.7843	3549.48		60.94959	
75.83825	3552.369		58.94849	
75.8922	3555.203		57.02871	
75.94614	3557.987		55.18597	
76.0001	3560.718		53.41594	
76.05405	3563.393		51.71521	
76.10799	3566.009		50.08002	
76.16195	3568.561		48.50663	
76.2159	3571.039		46.99239	
76.26984	3573.442		45.5341	
76.32379	3575.777		44.12908	
76.37775	3578.057		42.7745	
76.43169	3580.292		41.46836	
76.48564	3582.493		40.20834	
76.53959	3584.665		38.99235	
76.59354	3586.805		37.81839	
76.64749	3588.903		36.68502	
76.70144	3590.949		35.59054	
76.75539	3592.944		34.53316	
76.80934	3594.887		33.5117	
76.86329	3596.773		32.5245	
76.91724	3598.587		31.57003	
76.97119	3600.307		30.64666	
77.02514	3601.91		29.75313	
77.07909	3603.379		28.8879	
77.13304	3604.703		28.0493	
77.18699	3605.885		27.23619	
77.24094	3606.935		26.44704	
77.29488	3607.872		25.68048	
77.34884	3608.709		24.93513	
77.40279	3609.458		24.21	
77.45673	3610.124		23.50399	
77.51069	3610.706		22.81599	
77.56464	3611.204		22.14537	
77.61858	3611.63		21.49129	
77.67253	3612.002		20.85323	
77.72649	3612.33		20.23058	
77.78043	3612.616		19.62321	
77.83438	3612.872		19.03089	
77.88833	3613.115		18.45357	
77.94228	3613.366		17.89126	
77.99623	3613.641		17.34429	
78.05018	3613.947		16.81295	
78.10413	3614.291		16.29749	
78.15808	3614.674		15.79855	
78.21203	3615.103		15.31657	
78.26598	3615.593		14.85214	
78.31993	3616.151		14.40583	
78.37388	3616.779		13.97837	
78.42783	3617.481		13.57039	
78.48178	3618.257		13.18238	
78.53573	3619.093		12.81507	
78.58968	3619.968		12.46893	
78.64362	3620.868		12.14446	
78.69758	3621.794		11.84196	
78.75153	3622.746		11.56179	
78.80547	3623.721		11.30404	
78.85942	3624.709		11.06862	
78.91338	3625.698		10.85528	
78.96732	3626.674		10.66371	
79.02127	3627.632		10.49338	
79.07523	3628.571		10.34362	
79.12917	3629.484		10.21373	
79.18312	3630.366		10.10278	
79.23707	3631.209		10.00974	
79.29102	3632.005		9.933409	
79.34497	3632.741		9.87251	
79.39892	3633.405		9.825716	
79.45287	3633.981		9.791627	
79.50682	3634.46		9.768906	
79.56077	3634.844		9.756212	
79.61472	3635.15		9.752278	
79.66867	3635.394		9.755886	
79.72262	3635.593		9.765907	
79.77657	3635.758		9.78131	
79.83052	3635.89		9.801154	
79.88447	3635.995		9.824628	
79.93842	3636.091		9.851061	
79.99236	3636.201		9.879911	
80.04632	3636.341		9.910695	
80.10027	3636.513		9.942998	
80.15421	3636.711		9.976531	
80.20816	3636.928		10.01102	
80.26212	3637.156		10.04638	
80.31606	3637.388		10.08258	
80.37001	3637.623		10.11981	
80.42397	3637.865		10.15821	
80.47791	3638.116		10.19806	
80.53186	3638.382		10.23964	
80.58581	3638.662		10.2833	
80.63976	3638.972		10.32932	
80.69371	3639.317		10.37793	
80.74766	3639.711		10.42933	
80.80161	3640.167		10.48356	
80.85556	3640.698		10.54061	
80.90951	3641.301		10.60038	
80.96346	3641.969		10.66267	
81.01741	3642.681		10.72719	
81.07136	3643.412		10.79353	
81.12531	3644.135		10.86123	
81.17925	3644.84		10.92972	
81.23321	3645.523		10.99832	
81.28716	3646.192		11.06625	
81.3411	3646.857		11.13266	
81.39506	3647.528		11.19667	
81.44901	3648.203		11.25731	
81.50295	3648.888		11.31359	
81.5569	3649.589		11.36449	
81.61086	3650.317		11.40901	
81.6648	3651.09		11.4462	
81.71875	3651.925		11.47508	
81.77271	3652.825		11.49482	
81.82665	3653.776		11.50458	
81.8806	3654.759		11.50362	
81.93455	3655.75		11.49128	
81.9885	3656.732		11.46693	
82.04245	3657.684		11.43002	
82.0964	3658.6		11.37989	
82.15035	3659.488		11.31604	
82.2043	3660.362		11.23792	
82.25825	3661.234		11.14507	
82.31219	3662.115		11.03703	
82.36615	3663.001		10.91352	
82.4201	3663.888		10.77427	
82.47404	3664.772		10.61899	
82.52799	3665.652		10.44751	
82.58195	3666.516		10.25968	
82.63589	3667.349		10.05548	
82.68984	3668.129		9.834877	
82.7438	3668.845		9.597943	
82.79774	3669.491		9.344878	
82.85169	3670.078		9.075857	
82.90564	3670.615		8.79114	
82.95959	3671.123		8.490943	
83.01354	3671.611		8.175624	
83.06749	3672.089		7.845327	
83.12144	3672.559		7.500222	
83.17539	3673.02		7.140501	
83.22934	3673.458		6.766161	
83.28329	3673.867		6.377214	
83.33724	3674.239		5.973576	
83.39119	3674.576		5.555318	
83.44514	3674.871		5.122279	
83.49909	3675.125		4.674344	
83.55304	3675.326		4.211552	
83.60699	3675.479		3.733796	
83.66093	3675.594		3.241004	
83.71489	3675.689		2.733105	
83.76884	3675.773		2.210232	
83.82278	3675.862		1.67234	
83.87673	3675.967		1.119486	
83.93069	3676.093		0.5516861	
83.98463	3676.224		-0.03077757	
84.03858	3676.344		-0.6279091	
84.09254	3676.437		-1.239684	
84.14648	3676.496		-1.865878	
84.20043	3676.517		-2.506546	
84.25438	3676.5		-3.161661	
84.30833	3676.438		-3.831292	
84.36228	3676.33		-4.515168	
84.41623	3676.176		-5.213368	
84.47018	3675.99		-5.925909	
84.52413	3675.785		-6.652586	
84.57808	3675.566		-7.393445	
84.63203	3675.329		-8.148468	
84.68598	3675.07		-8.917569	
84.73993	3674.782		-9.70029	
84.79388	3674.465		-10.49641	
84.84782	3674.114		-11.30536	
84.90178	3673.725		-12.12665	
84.95573	3673.297		-12.95927	
85.00967	3672.822		-13.80254	
85.06363	3672.293		-14.65559	
85.11758	3671.712		-15.51716	
85.17152	3671.084		-16.3863	
85.22547	3670.409		-17.26185	
85.27943	3669.691		-18.14279	
85.33337	3668.931		-19.0277	
85.38732	3668.142		-19.91559	
85.44128	3667.327		-20.80538	
85.49522	3666.478		-21.69566	
85.54917	3665.58		-22.58533	
85.60312	3664.62		-23.47314	
85.65707	3663.584		-24.35794	
85.71102	3662.457		-25.23818	
85.76497	3661.227		-26.1127	
85.81892	3659.899		-26.98033	
85.87287	3658.479		-27.83962	
85.92682	3656.98		-28.68952	
85.98077	3655.404		-29.52892	
86.03472	3653.754		-30.35695	
86.08867	3652.029		-31.17251	
86.14262	3650.231		-31.97494	
86.19656	3648.357		-32.76366	
86.25052	3646.405		-33.53828	
86.30447	3644.374		-34.29822	
86.35841	3642.263		-35.04322	
86.41237	3640.064		-35.7732	
86.46632	3637.782		-36.48777	
86.52026	3635.41		-37.18696	
86.57421	3632.951		-37.8708	
86.62817	3630.401		-38.53957	
86.68211	3627.766		-39.19344	
86.73606	3625.05		-39.8328	
86.79002	3622.267		-40.4583	
86.84396	3619.426		-41.07022	
86.89791	3616.554		-41.66918	
86.95186	3613.674		-42.25571	
87.00581	3610.802		-42.8304	
87.05976	3607.932		-43.39357	
87.11371	3605.065		-43.94561	
87.16766	3602.189		-44.48686	
87.22161	3599.307		-45.01762	
87.27556	3596.412		-45.53794	
87.32951	3593.507		-46.04796	
87.38346	3590.59		-46.54794	
87.43741	3587.665		-47.03777	
87.49136	3584.73		-47.51752	
87.5453	3581.801		-47.98717	
87.59926	3578.895		-48.44676	
87.65321	3576.029		-48.89611	
87.70715	3573.21		-49.33527	
87.76111	3570.447		-49.7643	
87.81506	3567.746		-50.18313	
87.869	3565.11		-50.59189	
87.92295	3562.527		-50.9907	
87.97691	3559.985		-51.37975	
88.03085	3557.48		-51.75906	
88.0848	3555.014		-52.12888	
88.13876	3552.586		-52.48949	
88.1927	3550.187		-52.84103	
88.24665	3547.807		-53.18386	
88.3006	3545.436		-53.51829	
88.35455	3543.056		-53.84468	
88.4085	3540.655		-54.1633	
88.46245	3538.221		-54.47462	
88.5164	3535.751		-54.77903	
88.57035	3533.238		-55.07706	
88.6243	3530.671		-55.36919	
88.67825	3528.038		-55.65609	
88.7322	3525.332		-55.93844	
88.78615	3522.547		-56.21682	
88.8401	3519.683		-56.49193	
88.89404	3516.751		-56.76441	
88.948	3513.77		-57.03489	
89.00195	3510.754		-57.30386	
89.05589	3507.706		-57.57181	
89.10985	3504.62		-57.83915	
89.1638	3501.476		-58.10602	
89.21774	3498.249		-58.37261	
89.27169	3494.928		-58.63891	
89.32565	3491.522		-58.90483	
89.37959	3488.043		-59.17002	
89.43354	3484.5		-59.43411	
89.4875	3480.896		-59.69658	
89.54144	3477.247		-59.95668	
89.59539	3473.56		-60.2137	
89.64934	3469.851		-60.46679	
89.70329	3466.132		-60.7152	
89.75724	3462.425		-60.95803	
89.81119	3458.743		-61.1945	
89.86514	3455.097		-61.42384	
89.91909	3451.488		-61.64532	
89.97304	3447.918		-61.85818	
90.02699	3444.376		-62.06178	
90.08094	3440.853		-62.25567	
90.13489	3437.32		-62.43938	
90.18884	3433.762		-62.61261	
90.24278	3430.167		-62.77514	
90.29674	3426.538		-62.92691	
90.35069	3422.869		-63.06789	
90.40463	3419.17		-63.19821	
90.45859	3415.458		-63.31818	
90.51254	3411.765		-63.42817	
90.56648	3408.11		-63.52872	
90.62043	3404.509		-63.62053	
90.67439	3400.964		-63.70439	
90.72833	3397.474		-63.78118	
90.78228	3394.028		-63.85184	
90.83623	3390.616		-63.91741	
90.89018	3387.222		-63.979	
90.94413	3383.833		-64.03769	
90.99808	3380.428		-64.09465	
91.05203	3377.005		-64.15102	
91.10598	3373.562		-64.2079	
91.15993	3370.096		-64.26634	
91.21387	3366.601		-64.32734	
91.26783	3363.086		-64.39183	
91.32178	3359.568		-64.46065	
91.37572	3356.067		-64.53465	
91.42968	3352.591		-64.61457	
91.48363	3349.149		-64.701	
91.53757	3345.745		-64.79439	
91.59152	3342.386		-64.89503	
91.64548	3339.083		-65.00304	
91.69942	3335.841		-65.11834	
91.75337	3332.65		-65.24084	
91.80733	3329.489		-65.37027	
91.86127	3326.336		-65.50629	
91.91522	3323.17		-65.64852	
91.96917	3319.981		-65.79657	
92.02312	3316.772		-65.94997	
92.07707	3313.551		-66.10823	
92.13102	3310.312		-66.271	
92.18497	3307.061		-66.43787	
92.23892	3303.802		-66.60854	
92.29287	3300.54		-66.78264	
92.34682	3297.275		-66.95999	
92.40077	3294.01		-67.14038	
92.45472	3290.742		-67.37327	
92.50867	3287.466		-67.59465	
92.56261	3284.161		-67.80692	
92.61657	3280.803		-68.0127	
92.67052	3277.368		-68.21417	
92.72446	3273.836		-68.41312	
92.77842	3270.196		-68.61088	
92.83237	3266.454		-68.80832	
92.88631	3262.616		-69.00612	
92.94026	3258.699		-69.20476	
92.99422	3254.716		-69.40459	
93.04816	3250.685		-69.60576	
93.10211	3246.618		-69.80846	
93.15607	3242.522		-70.01279	
93.21001	3238.401		-70.21873	
93.26396	3234.261		-70.42632	
93.31791	3230.101		-70.63552	
93.37186	3225.927		-70.84633	
93.42581	3221.734		-71.0586	
93.47976	3217.522		-71.27228	
93.53371	3213.289		-71.48727	
93.58766	3209.037		-71.7035	
93.64161	3204.784		-71.92078	
93.69556	3200.542		-72.13901	
93.74951	3196.313		-72.35809	
93.80346	3192.115		-72.57784	
93.85741	3187.961		-72.79813	
93.91135	3183.854		-73.01884	
93.96531	3179.791		-73.23985	
94.01926	3175.774		-73.46096	
94.0732	3171.89		-73.68207	
94.12716	3168.129		-73.90307	
94.18111	3164.446		-74.12378	
94.23505	3160.803		-74.34412	
94.289	3157.182		-74.56396	
94.34296	3153.573		-74.78326	
94.3969	3149.971		-75.00184	
94.45085	3146.375		-75.21964	
94.5048	3142.782		-75.43659	
94.55875	3139.192		-75.65264	
94.6127	3135.605		-75.86768	
94.66665	3132.021		-76.08167	
94.7206	3128.442		-76.29459	
94.77455	3124.869		-76.50635	
94.8285	3121.303		-76.71695	
94.88245	3117.746		-76.92637	
94.9364	3114.201		-77.13462	
94.99035	3110.671		-77.34165	
