T[Â°C]	350nm [counts / mm]	S.D.	First derivative	S.D. of first derivative
20.00037	4367.822		-58.63991	
20.05447	4364.494		-58.71319	
20.10858	4361.179		-58.78601	
20.16269	4357.875		-58.85833	
20.21679	4354.581		-58.93012	
20.2709	4351.297		-59.00137	
20.325	4348.021		-59.07205	
20.37911	4344.753		-59.14212	
20.43322	4341.49		-59.21157	
20.48732	4338.232		-59.28037	
20.54143	4334.978		-59.34849	
20.59553	4331.726		-59.4159	
20.64964	4328.477		-59.48259	
20.70375	4325.231		-59.54853	
20.75785	4321.992		-59.6137	
20.81196	4318.763		-59.67807	
20.86606	4315.56		-59.74163	
20.92017	4312.414		-59.80436	
20.97428	4309.396		-59.86625	
21.02838	4306.385		-59.92728	
21.08249	4303.363		-59.98745	
21.13659	4300.309		-60.04674	
21.1907	4297.205		-60.10516	
21.24481	4294.04		-60.16271	
21.29891	4290.814		-60.21938	
21.35302	4287.534		-60.27519	
21.40712	4284.196		-60.33015	
21.46123	4280.808		-60.38426	
21.51534	4277.394		-60.43755	
21.56944	4273.977		-60.49003	
21.62355	4270.571		-60.54172	
21.67765	4267.187		-60.59266	
21.73176	4263.829		-60.64287	
21.78587	4260.49		-60.69241	
21.83997	4257.159		-60.74133	
21.89408	4253.822		-60.78968	
21.94818	4250.461		-60.83757	
22.00229	4247.067		-60.88507	
22.0564	4243.638		-60.9323	
22.1105	4240.177		-60.97939	
22.16461	4236.697		-61.02645	
22.21871	4233.208		-61.07363	
22.27282	4229.721		-61.12105	
22.32693	4226.245		-61.16878	
22.38103	4222.793		-61.2168	
22.43514	4219.381		-61.2649	
22.48924	4216.016		-61.31258	
22.54335	4212.698		-61.35895	
22.59746	4209.425		-61.40284	
22.65156	4206.188		-61.3875	
22.70567	4202.97		-61.36715	
22.75977	4199.75		-61.3422	
22.81388	4196.507		-61.3131	
22.86799	4193.225		-61.28035	
22.92209	4189.894		-61.24452	
22.9762	4186.509		-61.20616	
23.0303	4183.076		-61.16581	
23.08441	4179.601		-61.12406	
23.13852	4176.09		-61.08145	
23.19262	4172.563		-61.03858	
23.24673	4169.037		-60.99602	
23.30083	4165.534		-60.95436	
23.35494	4162.064		-60.91414	
23.40905	4158.629		-60.87585	
23.46315	4155.236		-60.8399	
23.51726	4151.89		-60.80661	
23.57136	4148.582		-60.7762	
23.62547	4145.294		-60.74879	
23.67957	4142.018		-60.72439	
23.73368	4138.736		-60.70296	
23.78779	4135.438		-60.68437	
23.84189	4132.117		-60.66845	
23.896	4128.774		-60.655	
23.95011	4125.42		-60.64375	
24.00421	4122.076		-60.63441	
24.05832	4118.764		-60.62673	
24.11242	4115.505		-60.62045	
24.16653	4112.315		-60.6154	
24.22064	4109.209		-60.61144	
24.27474	4106.189		-60.6085	
24.32885	4103.24		-60.60653	
24.38295	4100.344		-60.60548	
24.43706	4097.475		-60.60528	
24.49117	4094.613		-60.60583	
24.54527	4091.74		-60.60699	
24.59938	4088.843		-60.60864	
24.65348	4085.909		-60.61069	
24.70759	4082.921		-60.61308	
24.7617	4079.87		-60.61583	
24.8158	4076.755		-60.61899	
24.86991	4073.582		-60.62267	
24.92401	4070.362		-60.62705	
24.97812	4067.113		-60.63236	
25.03223	4063.851		-60.6389	
25.08633	4060.583		-60.64696	
25.14044	4057.31		-60.65688	
25.19454	4054.022		-60.66895	
25.24865	4050.712		-60.6834	
25.30276	4047.363		-60.70034	
25.35686	4043.953		-60.71974	
25.41097	4040.469		-60.74148	
25.46507	4036.91		-60.76532	
25.51918	4033.294		-60.79092	
25.57329	4029.642		-60.81782	
25.62739	4025.985		-60.84552	
25.6815	4022.35		-60.87342	
25.7356	4018.758		-60.90092	
25.78971	4015.217		-60.92739	
25.84381	4011.727		-60.95217	
25.89792	4008.292		-60.97462	
25.95203	4004.906		-60.99411	
26.00613	4001.56		-61.01006	
26.06024	3998.247		-61.02201	
26.11435	3994.962		-61.02956	
26.16845	3991.699		-61.03242	
26.22256	3988.449		-61.03035	
26.27666	3985.2		-61.0232	
26.33077	3981.945		-61.01081	
26.38488	3978.683		-60.993	
26.43898	3975.414		-60.96965	
26.49309	3972.137		-60.94062	
26.54719	3968.857		-60.90585	
26.6013	3965.579		-60.86537	
26.65541	3962.304		-60.81924	
26.70951	3959.026		-60.76762	
26.76362	3955.736		-60.71076	
26.81772	3952.421		-60.64897	
26.87183	3949.08		-60.58266	
26.92594	3945.716		-60.5123	
26.98004	3942.334		-60.43845	
27.03415	3938.951		-60.36168	
27.08825	3935.578		-60.28264	
27.14236	3932.217		-60.20196	
27.19647	3928.864		-60.1202	
27.25057	3925.515		-60.03788	
27.30468	3922.163		-59.95538	
27.35878	3918.805		-59.87305	
27.41289	3915.438		-59.79113	
27.467	3912.064		-59.70983	
27.5211	3908.69		-59.62931	
27.57521	3905.326		-59.54971	
27.62931	3901.986		-59.47112	
27.68342	3898.689		-59.39361	
27.73753	3895.453		-59.31724	
27.79163	3892.298		-59.24206	
27.84574	3889.24		-59.16812	
27.89984	3886.284		-59.09549	
27.95395	3883.412		-59.02427	
28.00805	3880.596		-58.95463	
28.06216	3877.808		-58.88676	
28.11627	3875.02		-58.82088	
28.17037	3872.207		-58.7572	
28.22448	3869.349		-58.69589	
28.27859	3866.429		-58.63708	
28.33269	3863.438		-58.58088	
28.3868	3860.374		-58.52734	
28.4409	3857.246		-58.47651	
28.49501	3854.066		-58.42846	
28.54912	3850.855		-58.38327	
28.60322	3847.635		-58.341	
28.65733	3844.421		-58.30168	
28.71143	3841.22		-58.26532	
28.76554	3838.026		-58.23188	
28.81964	3834.831		-58.20127	
28.87375	3831.625		-58.17337	
28.92786	3828.397		-58.14802	
28.98196	3825.146		-58.12508	
29.03607	3821.874		-58.10438	
29.09018	3818.582		-58.08577	
29.14428	3815.283		-58.06909	
29.19839	3811.989		-58.05414	
29.25249	3808.707		-58.04071	
29.3066	3805.448		-58.02858	
29.36071	3802.221		-58.01751	
29.41481	3799.03		-58.00735	
29.46892	3795.882		-57.99791	
29.52302	3792.789		-57.98906	
29.57713	3789.757		-57.98065	
29.63124	3786.775		-57.97252	
29.68534	3783.822		-57.96447	
29.73945	3780.883		-57.95623	
29.79355	3777.945		-57.94749	
29.84766	3774.997		-57.93793	
29.90177	3772.031		-57.92723	
29.95587	3769.035		-57.91515	
30.00998	3766.007		-57.90143	
30.06408	3762.948		-57.88595	
30.11819	3759.854		-57.86863	
30.17229	3756.718		-57.84946	
30.2264	3753.535		-57.82858	
30.28051	3750.302		-57.80619	
30.33461	3747.018		-57.78258	
30.38872	3743.691		-57.75817	
30.44283	3740.334		-57.73344	
30.49693	3736.962		-57.70892	
30.55104	3733.592		-57.6851	
30.60514	3730.238		-57.6624	
30.65925	3726.912		-57.64119	
30.71336	3723.625		-57.62167	
30.76746	3720.379		-57.60397	
30.82157	3717.17		-57.5881	
30.87567	3713.99		-57.57401	
30.92978	3710.839		-57.56156	
30.98388	3707.712		-57.5506	
31.03799	3704.595		-57.54092	
31.0921	3701.483		-57.53227	
31.1462	3698.383		-57.52436	
31.20031	3695.309		-57.5169	
31.25442	3692.271		-57.5096	
31.30852	3689.281		-57.5022	
31.36263	3686.34		-57.49451	
31.41673	3683.437		-57.48639	
31.47084	3680.555		-57.47777	
31.52495	3677.684		-57.46864	
31.57905	3674.811		-57.459	
31.63316	3671.921		-57.44888	
31.68726	3669.004		-57.43823	
31.74137	3666.059		-57.427	
31.79548	3663.083		-57.41509	
31.84958	3660.08		-57.40234	
31.90369	3657.045		-57.38859	
31.95779	3653.971		-57.37361	
32.0119	3650.862		-57.35719	
32.06601	3647.727		-57.33913	
32.12011	3644.57		-57.31932	
32.17422	3641.402		-57.29768	
32.22832	3638.231		-57.27422	
32.28243	3635.065		-57.24902	
32.33654	3631.906		-57.22229	
32.39064	3628.755		-57.19429	
32.44475	3625.608		-57.16533	
32.49885	3622.464		-57.13571	
32.55296	3619.32		-57.10572	
32.60707	3616.169		-57.0756	
32.66117	3613.008		-57.04556	
32.71528	3609.837		-57.01574	
32.76938	3606.657		-56.98626	
32.82349	3603.478		-56.95712	
32.87759	3600.307		-56.92834	
32.9317	3597.146		-56.89984	
32.98581	3593.997		-56.87153	
33.03991	3590.86		-56.84323	
33.09402	3587.733		-56.81474	
33.14812	3584.621		-56.78582	
33.20223	3581.525		-56.75624	
33.25634	3578.441		-56.72579	
33.31044	3575.365		-56.69429	
33.36455	3572.297		-56.66162	
33.41866	3569.239		-56.62771	
33.47276	3566.181		-56.59253	
33.52687	3563.116		-56.55614	
33.58097	3560.038		-56.51863	
33.63508	3556.947		-56.48015	
33.68919	3553.839		-56.44095	
33.74329	3550.71		-56.40134	
33.7974	3547.564		-56.36166	
33.8515	3544.414		-56.32226	
33.90561	3541.27		-56.28345	
33.95972	3538.144		-56.24551	
34.01382	3535.047		-56.20868	
34.06793	3531.983		-56.17316	
34.12203	3528.948		-56.1391	
34.17614	3525.937		-56.10661	
34.23024	3522.943		-56.07574	
34.28435	3519.966		-56.04654	
34.33846	3516.999		-56.01903	
34.39256	3514.038		-55.99318	
34.44667	3511.079		-55.96895	
34.50077	3508.12		-55.94626	
34.55488	3505.162		-55.92503	
34.60899	3502.202		-55.90517	
34.66309	3499.24		-55.88655	
34.7172	3496.279		-55.86908	
34.77131	3493.33		-55.85266	
34.82541	3490.404		-55.83719	
34.87952	3487.503		-55.82257	
34.93362	3484.624		-55.8087	
34.98773	3481.76		-55.79544	
35.04184	3478.906		-55.78262	
35.09594	3476.053		-55.77008	
35.15005	3473.201		-55.75763	
35.20415	3470.346		-55.7451	
35.25826	3467.482		-55.73228	
35.31237	3464.601		-55.71898	
35.36647	3461.698		-55.70503	
35.42058	3458.769		-55.69025	
35.47468	3455.806		-55.67448	
35.52879	3452.809		-55.65761	
35.58289	3449.786		-55.63956	
35.637	3446.75		-55.62034	
35.69111	3443.701		-55.60004	
35.74521	3440.639		-55.5788	
35.79932	3437.564		-55.55678	
35.85342	3434.473		-55.53416	
35.90753	3431.364		-55.5111	
35.96164	3428.238		-55.48774	
36.01574	3425.099		-55.46418	
36.06985	3421.953		-55.44051	
36.12395	3418.805		-55.41674	
36.17806	3415.651		-55.3929	
36.23217	3412.492		-55.36896	
36.28627	3409.324		-55.34485	
36.34038	3406.15		-55.3205	
36.39449	3402.979		-55.29583	
36.44859	3399.825		-55.27072	
36.5027	3396.699		-55.24504	
36.5568	3393.604		-55.21866	
36.61091	3390.542		-55.19145	
36.66502	3387.509		-55.1633	
36.71912	3384.499		-55.13415	
36.77323	3381.503		-55.1039	
36.82733	3378.514		-55.07247	
36.88144	3375.527		-55.03978	
36.93555	3372.535		-55.00573	
36.98965	3369.535		-54.97023	
37.04376	3366.526		-54.93321	
37.09786	3363.514		-54.89462	
37.15197	3360.505		-54.8544	
37.20607	3357.507		-54.81251	
37.26018	3354.525		-54.76891	
37.31429	3351.565		-54.72359	
37.36839	3348.635		-54.67659	
37.4225	3345.736		-54.62793	
37.4766	3342.866		-54.57772	
37.53071	3340.022		-54.52607	
37.58482	3337.2		-54.47314	
37.63892	3334.389		-54.41915	
37.69303	3331.579		-54.36428	
37.74714	3328.763		-54.30876	
37.80124	3325.939		-54.25279	
37.85535	3323.1		-54.19658	
37.90945	3320.24		-54.14035	
37.96356	3317.36		-54.08435	
38.01767	3314.466		-54.02881	
38.07177	3311.565		-53.97401	
38.12588	3308.665		-53.92023	
38.17998	3305.775		-53.86775	
38.23409	3302.906		-53.81681	
38.2882	3300.063		-53.76766	
38.3423	3297.242		-53.72054	
38.39641	3294.433		-53.67566	
38.45051	3291.628		-53.63318	
38.50462	3288.817		-53.59327	
38.55872	3285.992		-53.55607	
38.61283	3283.147		-53.52166	
38.66694	3280.284		-53.49012	
38.72104	3277.406		-53.46144	
38.77515	3274.511		-53.43557	
38.82925	3271.596		-53.4124	
38.88336	3268.661		-53.3918	
38.93747	3265.708		-53.37358	
38.99157	3262.742		-53.35754	
39.04568	3259.774		-53.34346	
39.09978	3256.811		-53.33102	
39.15389	3253.854		-53.3199	
39.208	3250.908		-53.30975	
39.2621	3247.968		-53.30018	
39.31621	3245.037		-53.29079	
39.37032	3242.119		-53.2812	
39.42442	3239.214		-53.27103	
39.47853	3236.32		-53.25992	
39.53263	3233.434		-53.24757	
39.58674	3230.55		-53.23374	
39.64085	3227.661		-53.21821	
39.69495	3224.764		-53.20084	
39.74906	3221.861		-53.18153	
39.80316	3218.958		-53.16022	
39.85727	3216.058		-53.13691	
39.91137	3213.165		-53.11163	
39.96548	3210.28		-53.08449	
40.01959	3207.407		-53.05563	
40.07369	3204.541		-53.02525	
40.1278	3201.679		-52.99357	
40.1819	3198.825		-52.96086	
40.23601	3195.986		-52.92739	
40.29012	3193.165		-52.89347	
40.34422	3190.356		-52.85938	
40.39833	3187.557		-52.82545	
40.45243	3184.755		-52.79198	
40.50654	3181.941		-52.75924	
40.56065	3179.102		-52.7275	
40.61475	3176.227		-52.69699	
40.66886	3173.321		-52.66792	
40.72297	3170.395		-52.64046	
40.77707	3167.453		-52.61478	
40.83118	3164.496		-52.59101	
40.88528	3161.531		-52.56929	
40.93939	3158.571		-52.54969	
40.9935	3155.626		-52.53224	
41.0476	3152.706		-52.51689	
41.10171	3149.817		-52.50352	
41.15581	3146.959		-52.49194	
41.20992	3144.124		-52.4819	
41.26403	3141.305		-52.47307	
41.31813	3138.498		-52.46507	
41.37224	3135.697		-52.4575	
41.42634	3132.902		-52.4499	
41.48045	3130.114		-52.44187	
41.53455	3127.337		-52.43302	
41.58866	3124.581		-52.42303	
41.64277	3121.849		-52.41164	
41.69687	3119.142		-52.39868	
41.75098	3116.456		-52.38404	
41.80508	3113.791		-52.36769	
41.85919	3111.147		-52.34964	
41.9133	3108.52		-52.33	
41.9674	3105.899		-52.30889	
42.02151	3103.276		-52.2865	
42.07561	3100.634		-52.26306	
42.12972	3097.958		-52.23885	
42.18383	3095.236		-52.21415	
42.23793	3092.456		-52.18923	
42.29204	3089.621		-52.16437	
42.34615	3086.742		-52.1398	
42.40025	3083.832		-52.11569	
42.45436	3080.904		-52.09216	
42.50846	3077.972		-52.06926	
42.56257	3075.038		-52.04702	
42.61668	3072.102		-52.02539	
42.67078	3069.164		-52.00435	
42.72489	3066.217		-51.98381	
42.77899	3063.255		-51.96371	
42.8331	3060.276		-51.94397	
42.8872	3057.282		-51.92449	
42.94131	3054.276		-51.90513	
42.99542	3051.262		-51.88573	
43.04952	3048.248		-51.86604	
43.10363	3045.243		-51.84579	
43.15773	3042.26		-51.82465	
43.21184	3039.311		-51.80223	
43.26595	3036.406		-51.77817	
43.32005	3033.552		-51.75208	
43.37416	3030.75		-51.72356	
43.42826	3027.994		-51.69227	
43.48237	3025.271		-51.65792	
43.53648	3022.575		-51.62031	
43.59058	3019.906		-51.57924	
43.64469	3017.258		-51.53466	
43.6988	3014.623		-51.48652	
43.7529	3011.993		-51.43491	
43.80701	3009.359		-51.37994	
43.86111	3006.715		-51.32183	
43.91522	3004.054		-51.26088	
43.96933	3001.371		-51.19746	
44.02343	2998.667		-51.13207	
44.07754	2995.942		-51.06525	
44.13164	2993.201		-50.99765	
44.18575	2990.439		-50.92991	
44.23985	2987.653		-50.86269	
44.29396	2984.846		-50.79661	
44.34807	2982.021		-50.73221	
44.40217	2979.188		-50.66998	
44.45628	2976.352		-50.61031	
44.51038	2973.514		-50.55354	
44.56449	2970.672		-50.4999	
44.6186	2967.822		-50.44953	
44.6727	2964.961		-50.40248	
44.72681	2962.095		-50.35874	
44.78091	2959.234		-50.31819	
44.83502	2956.39		-50.28069	
44.88913	2953.574		-50.24603	
44.94323	2950.795		-50.21402	
44.99734	2948.057		-50.18439	
45.05145	2945.365		-50.15687	
45.10555	2942.718		-50.13111	
45.15966	2940.117		-50.10676	
45.21376	2937.561		-50.0834	
45.26787	2935.045		-50.06063	
45.32198	2932.562		-50.03802	
45.37608	2930.095		-50.01516	
45.43019	2927.628		-49.9917	
45.48429	2925.149		-49.96734	
45.5384	2922.654		-49.9418	
45.59251	2920.144		-49.91488	
45.64661	2917.622		-49.88638	
45.70072	2915.094		-49.85618	
45.75482	2912.561		-49.82421	
45.80893	2910.021		-49.79044	
45.86303	2907.467		-49.75493	
45.91714	2904.89		-49.71782	
45.97124	2902.281		-49.67931	
46.02535	2899.633		-49.63966	
46.07946	2896.941		-49.5992	
46.13356	2894.205		-49.55827	
46.18767	2891.421		-49.51724	
46.24178	2888.589		-49.47646	
46.29588	2885.705		-49.43625	
46.34999	2882.781		-49.39693	
46.40409	2879.83		-49.35876	
46.4582	2876.875		-49.32194	
46.51231	2873.935		-49.28656	
46.56641	2871.023		-49.25266	
46.62052	2868.143		-49.22019	
46.67463	2865.295		-49.189	
46.72873	2862.477		-49.1589	
46.78284	2859.685		-49.1296	
46.83694	2856.917		-49.10082	
46.89105	2854.171		-49.07226	
46.94516	2851.45		-49.04363	
46.99926	2848.754		-49.01464	
47.05337	2846.077		-48.98497	
47.10747	2843.42		-48.95431	
47.16158	2840.787		-48.92231	
47.21568	2838.184		-48.88863	
47.26979	2835.617		-48.85292	
47.3239	2833.088		-48.8149	
47.378	2830.594		-48.77436	
47.43211	2828.122		-48.73111	
47.48621	2825.651		-48.68505	
47.54032	2823.163		-48.63614	
47.59443	2820.65		-48.58441	
47.64853	2818.111		-48.52998	
47.70264	2815.55		-48.47302	
47.75674	2812.971		-48.4138	
47.81085	2810.386		-48.35265	
47.86496	2807.803		-48.28996	
47.91906	2805.223		-48.22614	
47.97317	2802.639		-48.16168	
48.02728	2800.044		-48.09709	
48.08138	2797.434		-48.03292	
48.13549	2794.809		-47.96973	
48.18959	2792.171		-47.90809	
48.2437	2789.523		-47.84857	
48.29781	2786.867		-47.79169	
48.35191	2784.205		-47.7379	
48.40602	2781.537		-47.68752	
48.46012	2778.868		-47.64077	
48.51423	2776.204		-47.59774	
48.56833	2773.556		-47.55847	
48.62244	2770.933		-47.52286	
48.67655	2768.348		-47.49082	
48.73065	2765.803		-47.46222	
48.78476	2763.298		-47.43692	
48.83886	2760.822		-47.41476	
48.89297	2758.368		-47.39559	
48.94707	2755.939		-47.37923	
49.00118	2753.533		-47.36547	
49.05529	2751.14		-47.3541	
49.10939	2748.746		-47.34486	
49.1635	2746.336		-47.33753	
49.21761	2743.901		-47.33186	
49.27171	2741.435		-47.32762	
49.32582	2738.945		-47.32462	
49.37992	2736.44		-47.32267	
49.43403	2733.928		-47.3216	
49.48814	2731.407		-47.32128	
49.54224	2728.88		-47.32162	
49.59635	2726.343		-47.32256	
49.65046	2723.791		-47.32405	
49.70456	2721.224		-47.32606	
49.75867	2718.643		-47.32861	
49.81277	2716.058		-47.33167	
49.86688	2713.478		-47.33526	
49.92099	2710.908		-47.33937	
49.97509	2708.345		-47.34401	
50.0292	2705.781		-47.3492	
50.0833	2703.204		-47.35497	
50.13741	2700.603		-47.36138	
50.19151	2697.979		-47.36847	
50.24562	2695.335		-47.37627	
50.29972	2692.68		-47.38472	
50.35383	2690.022		-47.39374	
50.40794	2687.371		-47.40311	
50.46204	2684.728		-47.41255	
50.51615	2682.091		-47.42167	
50.57026	2679.458		-47.43	
50.62436	2676.828		-47.43702	
50.67847	2674.206		-47.44223	
50.73257	2671.601		-47.44509	
50.78668	2669.013		-47.4451	
50.84079	2666.439		-47.44175	
50.89489	2663.875		-47.43459	
50.949	2661.322		-47.42316	
51.00311	2658.787		-47.40713	
51.05721	2656.27		-47.38621	
51.11132	2653.769		-47.36026	
51.16542	2651.279		-47.32924	
51.21953	2648.788		-47.29322	
51.27364	2646.283		-47.25237	
51.32774	2643.754		-47.20692	
51.38185	2641.198		-47.15719	
51.43595	2638.619		-47.10353	
51.49006	2636.023		-47.04635	
51.54416	2633.419		-46.98611	
51.59827	2630.813		-46.92326	
51.65238	2628.21		-46.8583	
51.70648	2625.609		-46.79169	
51.76059	2623.009		-46.7239	
51.81469	2620.407		-46.65536	
51.8688	2617.801		-46.58649	
51.9229	2615.191		-46.5177	
51.97701	2612.583		-46.44932	
52.03112	2609.976		-46.38166	
52.08522	2607.368		-46.315	
52.13933	2604.757		-46.24958	
52.19344	2602.141		-46.18562	
52.24754	2599.518		-46.12329	
52.30165	2596.887		-46.06274	
52.35575	2594.253		-46.0041	
52.40986	2591.631		-45.94747	
52.46397	2589.031		-45.89288	
52.51807	2586.465		-45.84034	
52.57218	2583.941		-45.78978	
52.62629	2581.465		-45.74103	
52.68039	2579.037		-45.69391	
52.7345	2576.655		-45.64813	
52.7886	2574.313		-45.60338	
52.84271	2572.002		-45.55932	
52.89681	2569.712		-45.51562	
52.95092	2567.43		-45.47195	
53.00503	2565.15		-45.42804	
53.05913	2562.871		-45.38371	
53.11324	2560.596		-45.33883	
53.16734	2558.33		-45.29338	
53.22145	2556.07		-45.24743	
53.27555	2553.813		-45.20113	
53.32966	2551.555		-45.15469	
53.38377	2549.291		-45.10841	
53.43787	2547.017		-45.06264	
53.49198	2544.733		-45.01775	
53.54609	2542.435		-44.97416	
53.60019	2540.114		-44.93229	
53.6543	2537.762		-44.89249	
53.7084	2535.375		-44.85508	
53.76251	2532.955		-44.82026	
53.81662	2530.507		-44.78815	
53.87072	2528.04		-44.75877	
53.92483	2525.559		-44.73207	
53.97894	2523.069		-44.70794	
54.03304	2520.576		-44.68618	
54.08715	2518.077		-44.66656	
54.14125	2515.569		-44.64877	
54.19536	2513.048		-44.63249	
54.24947	2510.515		-44.61735	
54.30357	2507.973		-44.60302	
54.35768	2505.426		-44.58913	
54.41178	2502.879		-44.57539	
54.46589	2500.335		-44.56148	
54.51999	2497.802		-44.54708	
54.5741	2495.287		-44.53189	
54.6282	2492.795		-44.51559	
54.68231	2490.329		-44.49787	
54.73642	2487.892		-44.47842	
54.79052	2485.488		-44.45697	
54.84463	2483.116		-44.43329	
54.89874	2480.771		-44.4072	
54.95284	2478.447		-44.37856	
55.00695	2476.134		-44.34729	
55.06105	2473.823		-44.31331	
55.11516	2471.509		-44.27663	
55.16927	2469.187		-44.23729	
55.22337	2466.855		-44.19537	
55.27748	2464.511		-44.15103	
55.33158	2462.152		-44.1045	
55.38569	2459.771		-44.05605	
55.4398	2457.364		-44.00601	
55.4939	2454.935		-43.95476	
55.54801	2452.485		-43.90272	
55.60212	2450.014		-43.85034	
55.65622	2447.526		-43.79805	
55.71033	2445.021		-43.74624	
55.76443	2442.498		-43.69524	
55.81854	2439.961		-43.6453	
55.87264	2437.416		-43.59665	
55.92675	2434.866		-43.54942	
55.98086	2432.326		-43.50372	
56.03496	2429.81		-43.45954	
56.08907	2427.328		-43.41682	
56.14317	2424.883		-43.37542	
56.19728	2422.482		-43.33509	
56.25138	2420.13		-43.29555	
56.30549	2417.833		-43.2565	
56.3596	2415.588		-43.21763	
56.4137	2413.387		-43.17859	
56.46781	2411.218		-43.13904	
56.52192	2409.072		-43.09868	
56.57602	2406.942		-43.05721	
56.63013	2404.821		-43.01439	
56.68423	2402.709		-42.96998	
56.73834	2400.609		-42.92382	
56.79245	2398.518		-42.87579	
56.84655	2396.429		-42.82587	
56.90066	2394.338		-42.7741	
56.95477	2392.239		-42.72056	
57.00887	2390.129		-42.66541	
57.06298	2388.003		-42.60887	
57.11708	2385.851		-42.5512	
57.17119	2383.667		-42.49271	
57.22529	2381.447		-42.43375	
57.2794	2379.187		-42.37468	
57.33351	2376.885		-42.31588	
57.38761	2374.535		-42.2577	
57.44172	2372.138		-42.20049	
57.49582	2369.698		-42.14457	
57.54993	2367.219		-42.09024	
57.60403	2364.713		-42.03776	
57.65814	2362.192		-41.98738	
57.71225	2359.67		-41.93929	
57.76635	2357.155		-41.89366	
57.82046	2354.662		-41.85062	
57.87457	2352.199		-41.81025	
57.92867	2349.775		-41.77253	
57.98278	2347.394		-41.73741	
58.03688	2345.055		-41.70476	
58.09099	2342.746		-41.67437	
58.1451	2340.454		-41.64595	
58.1992	2338.17		-41.61917	
58.25331	2335.894		-41.59365	
58.30742	2333.63		-41.56896	
58.36152	2331.378		-41.54464	
58.41563	2329.139		-41.5202	
58.46973	2326.915		-41.49514	
58.52384	2324.71		-41.46895	
58.57794	2322.524		-41.44114	
58.63205	2320.357		-41.41121	
58.68616	2318.214		-41.37868	
58.74026	2316.094		-41.34315	
58.79437	2313.991		-41.30432	
58.84847	2311.898		-41.26194	
58.90258	2309.808		-41.21586	
58.95668	2307.715		-41.166	
59.01079	2305.612		-41.11235	
59.0649	2303.484		-41.05503	
59.119	2301.327		-40.99423	
59.17311	2299.143		-40.93025	
59.22721	2296.936		-40.86345	
59.28132	2294.712		-40.79426	
59.33543	2292.476		-40.72315	
59.38953	2290.235		-40.65058	
59.44364	2288		-40.57699	
59.49775	2285.779		-40.50278	
59.55185	2283.569		-40.42833	
59.60596	2281.366		-40.35398	
59.66006	2279.163		-40.28001	
59.71417	2276.95		-40.20665	
59.76828	2274.722		-40.1341	
59.82238	2272.481		-40.06247	
59.87649	2270.227		-39.99179	
59.9306	2267.969		-39.92204	
59.9847	2265.718		-39.85313	
60.03881	2263.483		-39.78495	
60.09291	2261.269		-39.71739	
60.14702	2259.078		-39.65033	
60.20112	2256.912		-39.58368	
60.25523	2254.771		-39.51734	
60.30933	2252.655		-39.45126	
60.36344	2250.56		-39.38534	
60.41755	2248.481		-39.3195	
60.47165	2246.411		-39.25367	
60.52576	2244.336		-39.18773	
60.57986	2242.25		-39.12152	
60.63397	2240.153		-39.0549	
60.68808	2238.047		-38.98766	
60.74218	2235.932		-38.91963	
60.79629	2233.804		-38.85064	
60.8504	2231.666		-38.78053	
60.9045	2229.533		-38.70911	
60.95861	2227.416		-38.63625	
61.01271	2225.316		-38.56179	
61.06682	2223.232		-38.48562	
61.12093	2221.167		-38.40765	
61.17503	2219.12		-38.32783	
61.22914	2217.086		-38.24611	
61.28325	2215.054		-38.16248	
61.33735	2213.008		-38.07688	
61.39146	2210.938		-37.98924	
61.44556	2208.845		-37.89945	
61.49967	2206.738		-37.80738	
61.55377	2204.624		-37.7129	
61.60788	2202.51		-37.61581	
61.66199	2200.406		-37.51591	
61.71609	2198.316		-37.41299	
61.7702	2196.25		-37.30676	
61.8243	2194.208		-37.19692	
61.87841	2192.191		-37.08308	
61.93251	2190.197		-36.96484	
61.98662	2188.229		-36.84173	
62.04073	2186.288		-36.71336	
62.09483	2184.369		-36.57932	
62.14894	2182.466		-36.43924	
62.20304	2180.567		-36.29281	
62.25715	2178.663		-36.13969	
62.31126	2176.743		-35.97964	
62.36536	2174.811		-35.81242	
62.41947	2172.873		-35.63789	
62.47358	2170.935		-35.45591	
62.52768	2168.997		-35.26639	
62.58179	2167.058		-35.06928	
62.63589	2165.116		-34.86451	
62.69	2163.172		-34.6521	
62.74411	2161.225		-34.43201	
62.79821	2159.271		-34.20429	
62.85232	2157.312		-33.96891	
62.90642	2155.351		-33.72584	
62.96053	2153.387		-33.47501	
63.01464	2151.418		-33.21634	
63.06874	2149.45		-32.94972	
63.12285	2147.489		-32.67495	
63.17695	2145.539		-32.39185	
63.23106	2143.603		-32.10013	
63.28516	2141.683		-31.79954	
63.33927	2139.777		-31.48972	
63.39338	2137.882		-31.17031	
63.44748	2135.999		-30.84093	
63.50159	2134.13		-30.50111	
63.55569	2132.278		-30.15042	
63.6098	2130.448		-29.78829	
63.66391	2128.65		-29.41418	
63.71801	2126.888		-29.02743	
63.77212	2125.172		-28.62737	
63.82623	2123.504		-28.21321	
63.88033	2121.889		-27.78413	
63.93444	2120.333		-27.33925	
63.98854	2118.84		-26.87758	
64.04265	2117.407		-26.39821	
64.09676	2116.028		-25.9001	
64.15086	2114.691		-25.38222	
64.20496	2113.383		-24.8436	
64.25907	2112.087		-24.28304	
64.31318	2110.792		-23.69956	
64.36729	2109.493		-23.0922	
64.42139	2108.195		-22.45997	
64.47549	2106.903		-21.80212	
64.5296	2105.625		-21.11765	
64.58371	2104.364		-20.40595	
64.63782	2103.119		-19.66632	
64.69193	2101.896		-18.8982	
64.74603	2100.702		-18.10115	
64.80013	2099.546		-17.27447	
64.85424	2098.432		-16.41783	
64.90835	2097.359		-15.53076	
64.96245	2096.323		-14.61303	
65.01656	2095.326		-13.66392	
65.07066	2094.365		-12.68311	
65.12477	2093.435		-11.67005	
65.17888	2092.529		-10.62415	
65.23298	2091.642		-9.544984	
65.28709	2090.773		-8.431549	
65.34119	2089.93		-7.28328	
65.3953	2089.122		-6.099329	
65.4494	2088.363		-4.879073	
65.50351	2087.664		-3.621204	
65.55762	2087.033		-2.324846	
65.61172	2086.48		-0.9888787	
65.66583	2086.005		0.3879839	
65.71993	2085.61		1.806788	
65.77404	2085.287		3.269352	
65.82815	2085.03		4.776945	
65.88226	2084.833		6.331211	
65.93636	2084.696		7.933493	
65.99046	2084.627		9.585949	
66.04457	2084.632		11.29006	
66.09868	2084.725		13.04752	
66.15279	2084.916		14.86011	
66.20689	2085.213		16.72917	
66.26099	2085.625		18.65689	
66.3151	2086.161		20.64454	
66.36921	2086.827		22.6937	
66.42332	2087.631		24.80567	
66.47742	2088.58		26.9815	
66.53152	2089.678		29.22303	
66.58563	2090.923		31.53112	
66.63974	2092.308		33.90698	
66.69384	2093.826		36.35126	
66.74795	2095.471		38.86567	
66.80206	2097.236		41.45084	
66.85616	2099.113		44.10761	
66.91027	2101.093		46.83675	
66.96437	2103.175		49.63852	
67.01848	2105.371		52.51432	
67.07259	2107.696		55.46428	
67.12669	2110.167		58.48888	
67.18079	2112.794		61.5881	
67.2349	2115.579		64.76316	
67.28901	2118.519		68.01394	
67.34312	2121.608		71.34068	
67.39722	2124.839		74.74364	
67.45132	2128.21		78.22254	
67.50543	2131.727		81.77865	
67.55954	2135.395		85.41174	
67.61365	2139.223		89.12209	
67.66775	2143.224		92.90948	
67.72186	2147.412		96.77526	
67.77596	2151.804		100.7192	
67.83007	2156.415		104.7418	
67.88418	2161.26		108.8432	
67.93828	2166.356		113.0233	
67.99239	2171.717		117.2835	
68.04649	2177.361		121.6235	
68.1006	2183.299		126.0434	
68.15471	2189.539		130.5432	
68.20881	2196.075		135.1224	
68.26292	2202.901		139.782	
68.31702	2210.009		144.521	
68.37113	2217.396		149.3391	
68.42523	2225.063		154.235	
68.47934	2233.009		159.2092	
68.53345	2241.225		164.2603	
68.58755	2249.707		169.387	
68.64166	2258.458		174.5883	
68.69576	2267.482		179.8621	
68.74987	2276.788		185.2085	
68.80398	2286.382		190.6253	
68.85809	2296.27		196.1109	
68.91219	2306.456		201.6629	
68.96629	2316.949		207.281	
69.0204	2327.75		212.9627	
69.07451	2338.86		218.706	
69.12862	2350.284		224.5088	
69.18272	2362.031		230.3681	
69.23682	2374.117		236.2832	
69.29093	2386.553		242.2507	
69.34504	2399.344		248.2679	
69.39914	2412.49		254.331	
69.45325	2425.991		260.4385	
69.50735	2439.849		266.5861	
69.56146	2454.069		272.77	
69.61557	2468.66		278.986	
69.66967	2483.629		285.2289	
69.72378	2498.985		291.4955	
69.77789	2514.732		297.7797	
69.83199	2530.878		304.0757	
69.8861	2547.426		310.3774	
69.9402	2564.373		316.6774	
69.99431	2581.728		322.9702	
70.04842	2599.491		329.2474	
70.10252	2617.667		335.5006	
70.15662	2636.249		341.7203	
70.21073	2655.231		347.899	
70.26484	2674.596		354.0259	
70.31895	2694.334		360.0907	
70.37305	2714.444		366.0823	
70.42715	2734.92		371.9884	
70.48126	2755.769		377.7986	
70.53537	2776.984		383.4994	
70.58948	2798.566		389.0778	
70.64358	2820.511		394.5196	
70.69769	2842.833		399.8127	
70.75179	2865.53		404.9426	
70.8059	2888.604		409.8953	
70.86001	2912.045		414.657	
70.91411	2935.846		419.2135	
70.96822	2960.006		423.5525	
71.02232	2984.512		427.6604	
71.07643	3009.351		431.5244	
71.13053	3034.513		435.1321	
71.18464	3060.01		438.473	
71.23875	3085.845		441.536	
71.29285	3112.035		444.3112	
71.34696	3138.582		446.7895	
71.40106	3165.488		448.9627	
71.45517	3192.76		450.8243	
71.50928	3220.385		452.3677	
71.56339	3248.36		453.5879	
71.61749	3276.677		454.4804	
71.67159	3305.319		455.0422	
71.7257	3334.273		455.2711	
71.77981	3363.501		455.1656	
71.83392	3392.966		454.7256	
71.88802	3422.627		453.9516	
71.94212	3452.45		452.8452	
71.99623	3482.39		451.4087	
72.05034	3512.409		449.6458	
72.10445	3542.463		447.5605	
72.15855	3572.5		445.1584	
72.21265	3602.474		442.4444	
72.26676	3632.323		439.4253	
72.32087	3661.99		436.108	
72.37497	3691.412		432.5005	
72.42908	3720.53		428.6097	
72.48318	3749.275		424.4443	
72.53729	3777.587		420.0129	
72.5914	3805.402		415.3244	
72.6455	3832.656		410.3886	
72.69961	3859.309		405.2137	
72.75372	3885.313		399.8098	
72.80782	3910.624		394.1871	
72.86192	3935.197		388.3567	
72.91603	3959.011		382.3272	
72.97014	3982.044		376.1103	
73.02425	4004.275		369.7167	
73.07835	4025.686		363.1577	
73.13245	4046.266		356.4456	
73.18656	4066.022		349.5902	
73.24067	4084.962		342.6046	
73.29478	4103.104		335.5009	
73.34888	4120.468		328.2917	
73.40298	4137.078		320.9911	
73.45709	4152.953		313.6103	
73.5112	4168.101		306.1639	
73.56531	4182.533		298.6658	
73.61941	4196.269		291.1311	
73.67352	4209.335		283.572	
73.72762	4221.755		276.0036	
73.78173	4233.561		268.4405	
73.83584	4244.791		260.8969	
73.88994	4255.485		253.3878	
73.94405	4265.689		245.9254	
73.99815	4275.441		238.5245	
74.05226	4284.773		231.1985	
74.10636	4293.71		223.9617	
74.16047	4302.28		216.8246	
74.21458	4310.504		209.8004	
74.26868	4318.403		202.9006	
74.32279	4326		196.136	
74.37689	4333.315		189.5179	
74.431	4340.374		183.0535	
74.48511	4347.202		176.7522	
74.53922	4353.826		170.6217	
74.59332	4360.263		164.6694	
74.64742	4366.531		158.8992	
74.70153	4372.645		153.3168	
74.75564	4378.612		147.9257	
74.80975	4384.429		142.7287	
74.86385	4390.096		137.7281	
74.91795	4395.616		132.9229	
74.97206	4400.983		128.3135	
75.02617	4406.192		123.8984	
75.08028	4411.244		119.6755	
75.13438	4416.139		115.6419	
75.18848	4420.886		111.7927	
75.24259	4425.492		108.1237	
75.2967	4429.975		104.6296	
75.3508	4434.353		101.3053	
75.40491	4438.646		98.1436	
75.45901	4442.863		95.13876	
75.51312	4447		92.28415	
75.56723	4451.05		89.57306	
75.62133	4455.003		86.99905	
75.67544	4458.845		84.55451	
75.72955	4462.559		82.23299	
75.78365	4466.133		80.02766	
75.83775	4469.558		77.93212	
75.89186	4472.839		75.93915	
75.94597	4475.999		74.04258	
76.00008	4479.064		72.23611	
76.05418	4482.065		70.51366	
76.10828	4485.036		68.86964	
76.16239	4488.005		67.29808	
76.2165	4490.987		65.79404	
76.27061	4493.982		64.35267	
76.32471	4496.979		62.96965	
76.37881	4499.963		61.64045	
76.43292	4502.91		60.36143	
76.48703	4505.801		59.12917	
76.54114	4508.625		57.94057	
76.59524	4511.378		56.79307	
76.64935	4514.067		55.68396	
76.70345	4516.707		54.61136	
76.75756	4519.315		53.57355	
76.81167	4521.911		52.56905	
76.86577	4524.509		51.59671	
76.91988	4527.123		50.65519	
76.97398	4529.757		49.74365	
77.02809	4532.412		48.86127	
77.08219	4535.083		48.0074	
77.1363	4537.759		47.18111	
77.19041	4540.415		46.3819	
77.24451	4543.03		45.60918	
77.29862	4545.585		44.86246	
77.35272	4548.054		44.14141	
77.40683	4550.428		43.44546	
77.46094	4552.704		42.77431	
77.51505	4554.886		42.12756	
77.56915	4556.988		41.50491	
77.62325	4559.03		40.90574	
77.67736	4561.034		40.32969	
77.73147	4563.023		39.77627	
77.78558	4565.011		39.24493	
77.83968	4567.009		38.73513	
77.89378	4569.031		38.24603	
77.94789	4571.078		37.77703	
78.002	4573.135		37.32741	
78.0561	4575.182		36.89657	
78.11021	4577.197		36.48374	
78.16431	4579.158		36.0884	
78.21842	4581.049		35.70999	
78.27253	4582.861		35.34801	
78.32663	4584.594		35.00206	
78.38074	4586.246		34.67162	
78.43484	4587.815		34.35637	
78.48895	4589.305		34.05593	
78.54306	4590.717		33.77003	
78.59716	4592.066		33.49852	
78.65127	4593.373		33.24123	
78.70538	4594.667		32.99825	
78.75948	4595.978		32.76977	
78.81358	4597.315		32.55611	
78.86769	4598.674		32.35762	
78.9218	4600.039		32.17478	
78.97591	4601.397		32.00811	
79.03001	4602.736		31.8582	
79.08411	4604.045		31.72569	
79.13822	4605.324		31.6112	
79.19233	4606.583		31.51539	
79.24644	4607.846		31.43892	
79.30054	4609.129		31.38239	
79.35464	4610.454		31.34638	
79.40875	4611.837		31.33138	
79.46286	4613.297		31.33784	
79.51697	4614.852		31.36616	
79.57107	4616.513		31.41659	
79.62518	4618.282		31.48934	
79.67928	4620.142		31.58445	
79.73339	4622.063		31.70186	
79.78749	4624.013		31.84138	
79.8416	4625.968		32.00278	
79.89571	4627.914		32.1857	
79.94981	4629.833		32.38968	
80.00392	4631.71		32.61417	
80.05802	4633.536		32.85848	
80.11213	4635.311		33.12189	
80.16624	4637.035		33.40347	
80.22034	4638.724		33.70217	
80.27445	4640.39		34.01683	
80.32855	4642.052		34.34611	
80.38266	4643.721		34.68866	
80.43677	4645.412		35.04284	
80.49088	4647.125		35.40686	
80.54498	4648.854		35.77882	
80.59908	4650.583		36.15689	
80.65319	4652.308		36.53909	
80.7073	4654.022		36.92346	
80.76141	4655.735		37.30809	
80.81551	4657.458		37.69105	
80.86961	4659.21		38.0706	
80.92372	4661.006		38.44494	
80.97783	4662.861		38.81242	
81.03193	4664.779		39.17149	
81.08604	4666.766		39.52081	
81.14014	4668.821		39.85897	
81.19425	4670.946		40.18467	
81.24836	4673.147		40.49661	
81.30246	4675.43		40.79354	
81.35657	4677.788		41.07439	
81.41068	4680.197		41.33806	
81.46478	4682.632		41.5836	
81.51888	4685.078		41.81009	
81.57299	4687.532		42.01677	
81.6271	4689.998		42.20282	
81.68121	4692.478		42.36747	
81.73531	4694.973		42.51003	
81.78941	4697.491		42.6298	
81.84352	4700.042		42.72617	
81.89763	4702.635		42.79852	
81.95174	4705.273		42.84626	
82.00584	4707.958		42.86885	
82.05994	4710.69		42.86574	
82.11405	4713.47		42.83635	
82.16816	4716.288		42.78005	
82.22227	4719.141		42.69618	
82.27637	4722.018		42.58404	
82.33047	4724.914		42.44278	
82.38458	4727.813		42.27149	
82.43869	4730.711		42.06915	
82.4928	4733.605		41.83465	
82.5469	4736.495		41.56691	
82.60101	4739.372		41.26471	
82.65511	4742.227		40.92693	
82.70922	4745.047		40.55247	
82.76332	4747.834		40.1403	
82.81743	4750.586		39.6893	
82.87154	4753.312		39.19857	
82.92564	4756		38.6673	
82.97975	4758.633		38.09478	
83.03385	4761.19		37.48048	
83.08796	4763.663		36.82375	
83.14207	4766.039		36.12429	
83.19617	4768.318		35.38185	
83.25027	4770.502		34.59642	
83.30438	4772.605		33.76778	
83.35849	4774.631		32.89618	
83.4126	4776.583		31.98189	
83.46671	4778.464		31.02537	
83.52081	4780.29		30.02735	
83.57491	4782.064		28.98825	
83.62902	4783.79		27.90903	
83.68313	4785.46		26.79059	
83.73724	4787.071		25.63389	
83.79134	4788.614		24.44014	
83.84544	4790.088		23.21016	
83.89955	4791.487		21.94534	
83.95366	4792.818		20.64708	
84.00776	4794.091		19.31708	
84.06187	4795.32		17.9566	
84.11597	4796.492		16.56753	
84.17008	4797.599		15.15165	
84.22419	4798.631		13.71081	
84.27829	4799.594		12.24712	
84.3324	4800.483		10.76205	
84.38651	4801.299		9.257707	
84.44061	4802.04		7.735959	
84.49471	4802.714		6.198861	
84.54882	4803.32		4.647781	
84.60293	4803.855		3.084715	
84.65704	4804.301		1.511414	
84.71114	4804.642		-0.07036764	
84.76524	4804.856		-1.658686	
84.81935	4804.939		-3.252309	
84.87346	4804.886		-4.849396	
84.92757	4804.695		-6.448383	
84.98167	4804.357		-8.047524	
85.03577	4803.874		-9.64578	
85.08988	4803.249		-11.24145	
85.14399	4802.5		-12.83307	
85.1981	4801.641		-14.4192	
85.2522	4800.686		-15.9982	
85.3063	4799.639		-17.56917	
85.36041	4798.492		-19.1306	
85.41452	4797.234		-20.68123	
85.46863	4795.859		-22.21981	
85.52273	4794.367		-23.74487	
85.57684	4792.759		-25.25559	
85.63094	4791.042		-26.75061	
85.68505	4789.22		-28.22883	
85.73915	4787.297		-29.68901	
85.79326	4785.276		-31.13061	
85.84737	4783.151		-32.55252	
85.90147	4780.917		-33.95392	
85.95558	4778.584		-35.33403	
86.00968	4776.168		-36.69197	
86.06379	4773.686		-38.02753	
86.1179	4771.141		-39.34002	
86.172	4768.537		-40.62901	
86.2261	4765.874		-41.89397	
86.28021	4763.148		-43.13494	
86.33432	4760.353		-44.35154	
86.38843	4757.483		-45.54358	
86.44254	4754.527		-46.71101	
86.49664	4751.483		-47.85362	
86.55074	4748.357		-48.97176	
86.60485	4745.168		-50.0653	
86.65896	4741.922		-51.13432	
86.71306	4738.631		-52.17871	
86.76717	4735.301		-53.19889	
86.82127	4731.942		-54.19487	
86.87538	4728.553		-55.16687	
86.92949	4725.131		-56.11515	
86.98359	4721.667		-57.03991	
87.0377	4718.152		-57.94175	
87.0918	4714.583		-58.82099	
87.14591	4710.971		-59.67804	
87.20002	4707.333		-60.51335	
87.25412	4703.695		-61.32725	
87.30823	4700.069		-62.12042	
87.36234	4696.471		-62.89315	
87.41644	4692.901		-63.64586	
87.47054	4689.359		-64.37881	
87.52465	4685.833		-65.09256	
87.57876	4682.313		-65.78739	
87.63287	4678.786		-66.46371	
87.68697	4675.247		-67.12194	
87.74107	4671.69		-67.76251	
87.79518	4668.108		-68.38609	
87.84929	4664.486		-68.99313	
87.9034	4660.824		-69.58418	
87.9575	4657.125		-70.15977	
88.0116	4653.404		-70.72073	
88.06571	4649.674		-71.26767	
88.11982	4645.943		-71.80132	
88.17393	4642.209		-72.32243	
88.22803	4638.47		-72.83173	
88.28214	4634.717		-73.33012	
88.33624	4630.946		-73.81829	
88.39035	4627.139		-74.29703	
88.44445	4623.277		-74.76698	
88.49856	4619.333		-75.229	
88.55267	4615.294		-75.6837	
88.60677	4611.145		-76.13169	
88.66088	4606.884		-76.57347	
88.71498	4602.514		-77.00941	
88.76909	4598.048		-77.43994	
88.8232	4593.51		-77.86523	
88.8773	4588.931		-78.28544	
88.93141	4584.336		-78.70067	
88.98551	4579.745		-79.11095	
89.03962	4575.16		-79.51649	
89.09373	4570.589		-79.91723	
89.14783	4566.034		-80.31316	
89.20193	4561.494		-80.70408	
89.25604	4556.958		-81.0899	
89.31015	4552.418		-81.47028	
89.36426	4547.863		-81.84484	
89.41837	4543.283		-82.21315	
89.47247	4538.674		-82.57471	
89.52657	4534.034		-82.92915	
89.58068	4529.369		-83.27593	
89.63479	4524.689		-83.61466	
89.68889	4520.015		-83.94492	
89.743	4515.363		-84.26649	
89.7971	4510.742		-84.57906	
89.85121	4506.154		-84.88235	
89.90532	4501.591		-85.17609	
89.95942	4497.041		-85.46001	
90.01353	4492.485		-85.73396	
90.06763	4487.907		-85.99772	
90.12174	4483.283		-86.25113	
90.17584	4478.598		-86.49403	
90.22995	4473.838		-86.72641	
90.28406	4468.999		-86.94819	
90.33817	4464.088		-87.15942	
90.39227	4459.125		-87.36024	
90.44637	4454.131		-87.55088	
90.50048	4449.116		-87.73178	
90.55459	4444.097		-87.90341	
90.6087	4439.101		-88.06633	
90.6628	4434.151		-88.22114	
90.7169	4429.257		-88.36839	
90.77101	4424.417		-88.50871	
90.82512	4419.621		-88.64263	
90.87923	4414.855		-88.7707	
90.93333	4410.096		-88.89339	
90.98743	4405.324		-89.01123	
91.04154	4400.519		-89.12463	
91.09565	4395.679		-89.23402	
91.14976	4390.802		-89.33976	
91.20386	4385.903		-89.44215	
91.25797	4381		-89.5415	
91.31207	4376.12		-89.63799	
91.36618	4371.269		-89.73183	
91.42028	4366.458		-89.82323	
91.47439	4361.681		-89.91246	
91.5285	4356.921		-89.99984	
91.5826	4352.154		-90.08566	
91.63671	4347.368		-90.17023	
91.69081	4342.551		-90.25383	
91.74492	4337.695		-90.33679	
91.79903	4332.793		-90.41936	
91.85313	4327.852		-90.50177	
91.90723	4322.877		-90.58422	
91.96134	4317.878		-90.66689	
92.01545	4312.861		-90.74991	
92.06956	4307.841		-90.83335	
92.12366	4302.828		-90.9173	
92.17776	4297.83		-91.00177	
92.23187	4292.843		-91.08682	
92.28598	4287.874		-91.17245	
92.34009	4282.93		-91.25866	
92.3942	4278.022		-91.34542	
92.4483	4273.148		-91.44677	
92.5024	4268.293		-91.5478	
92.55651	4263.437		-91.64805	
92.61062	4258.571		-91.74734	
92.66472	4253.686		-91.84563	
92.71883	4248.786		-91.94302	
92.77293	4243.873		-92.03964	
92.82704	4238.955		-92.13562	
92.88115	4234.034		-92.23109	
92.93525	4229.114		-92.32616	
92.98936	4224.186		-92.42097	
93.04346	4219.251		-92.5156	
93.09757	4214.299		-92.61012	
93.15167	4209.325		-92.70457	
93.20578	4204.323		-92.79906	
93.25989	4199.302		-92.89358	
93.314	4194.266		-92.9882	
93.3681	4189.228		-93.08294	
93.4222	4184.2		-93.17783	
93.47631	4179.193		-93.27293	
93.53042	4174.192		-93.36826	
93.58453	4169.183		-93.46383	
93.63863	4164.159		-93.55965	
93.69273	4159.11		-93.65578	
93.74684	4154.031		-93.7522	
93.80095	4148.933		-93.84895	
93.85506	4143.813		-93.94602	
93.90916	4138.672		-94.04341	
93.96326	4133.497		-94.14117	
94.01737	4128.284		-94.23927	
94.07148	4123.036		-94.33773	
94.12559	4117.74		-94.43653	
94.17969	4112.494		-94.53564	
94.2338	4107.29		-94.63509	
94.2879	4102.114		-94.73485	
94.34201	4096.958		-94.8349	
94.39611	4091.813		-94.9352	
94.45022	4086.672		-95.03578	
94.50433	4081.533		-95.1366	
94.55843	4076.394		-95.23765	
94.61254	4071.253		-95.3389	
94.66664	4066.11		-95.44032	
94.72075	4060.963		-95.54194	
94.77486	4055.812		-95.64371	
94.82896	4050.654		-95.74562	
94.88306	4045.493		-95.84764	
94.93717	4040.327		-95.94979	
94.99128	4035.16		-96.05205	
