T[Â°C]	330nm [counts / mm]	S.D.	First derivative	S.D. of first derivative
20.00061	4980.257		-73.27778	
20.05472	4976.342		-73.15416	
20.10883	4972.438		-73.03056	
20.16294	4968.545		-72.90702	
20.21705	4964.661		-72.78355	
20.27115	4960.787		-72.66019	
20.32526	4956.922		-72.53696	
20.37937	4953.064		-72.41389	
20.43348	4949.214		-72.29102	
20.48759	4945.369		-72.1684	
20.5417	4941.529		-72.04607	
20.5958	4937.692		-71.92406	
20.64991	4933.856		-71.80242	
20.70402	4930.02		-71.68121	
20.75813	4926.181		-71.56046	
20.81224	4922.34		-71.44022	
20.86635	4918.502		-71.32056	
20.92046	4914.69		-71.20151	
20.97456	4910.883		-71.08313	
21.02867	4907.058		-70.96546	
21.08278	4903.213		-70.84856	
21.13689	4899.352		-70.73248	
21.191	4895.479		-70.61725	
21.24511	4891.606		-70.50293	
21.29921	4887.73		-70.38956	
21.35332	4883.842		-70.27718	
21.40743	4879.932		-70.16582	
21.46154	4875.986		-70.05552	
21.51565	4872.004		-69.9463	
21.56976	4867.985		-69.83818	
21.62387	4863.939		-69.73116	
21.67797	4859.886		-69.62522	
21.73208	4855.848		-69.52036	
21.78619	4851.844		-69.41656	
21.8403	4847.896		-69.31375	
21.89441	4844.015		-69.21188	
21.94851	4840.208		-69.11086	
22.00262	4836.479		-69.01059	
22.05673	4832.827		-68.91092	
22.11084	4829.243		-68.81168	
22.16495	4825.718		-68.71262	
22.21906	4822.239		-68.61349	
22.27316	4818.791		-68.51394	
22.32727	4815.365		-68.41357	
22.38138	4811.953		-68.31192	
22.43549	4808.546		-68.20853	
22.4896	4805.135		-68.10298	
22.54371	4801.714		-67.99498	
22.59782	4798.282		-67.88451	
22.65192	4794.846		-67.8186	
22.70603	4791.417		-67.75474	
22.76014	4788		-67.69294	
22.81425	4784.591		-67.63327	
22.86836	4781.184		-67.57578	
22.92247	4777.772		-67.52054	
22.97658	4774.348		-67.4676	
23.03068	4770.896		-67.417	
23.08479	4767.402		-67.36871	
23.1389	4763.849		-67.32271	
23.19301	4760.234		-67.27889	
23.24712	4756.568		-67.23713	
23.30123	4752.864		-67.19726	
23.35533	4749.134		-67.1591	
23.40944	4745.382		-67.12244	
23.46355	4741.617		-67.08716	
23.51766	4737.847		-67.0531	
23.57177	4734.083		-67.0202	
23.62588	4730.335		-66.98839	
23.67999	4726.608		-66.95764	
23.73409	4722.911		-66.92792	
23.7882	4719.247		-66.8992	
23.84231	4715.619		-66.87142	
23.89642	4712.02		-66.84451	
23.95053	4708.437		-66.81834	
24.00463	4704.844		-66.79279	
24.05874	4701.216		-66.76774	
24.11285	4697.542		-66.7431	
24.16696	4693.823		-66.71877	
24.22107	4690.07		-66.69464	
24.27518	4686.299		-66.67065	
24.32928	4682.532		-66.6467	
24.38339	4678.79		-66.62267	
24.4375	4675.083		-66.59848	
24.49161	4671.414		-66.574	
24.54572	4667.778		-66.5491	
24.59983	4664.158		-66.52368	
24.65394	4660.536		-66.4976	
24.70804	4656.904		-66.47071	
24.76215	4653.261		-66.44286	
24.81626	4649.603		-66.41385	
24.87037	4645.929		-66.38347	
24.92448	4642.235		-66.35147	
24.97859	4638.52		-66.31761	
25.03269	4634.786		-66.28162	
25.0868	4631.036		-66.24326	
25.14091	4627.27		-66.20228	
25.19502	4623.494		-66.15851	
25.24913	4619.73		-66.11179	
25.30324	4616.003		-66.06198	
25.35735	4612.331		-66.00897	
25.41145	4608.725		-65.95266	
25.46556	4605.192		-65.89303	
25.51967	4601.732		-65.83013	
25.57378	4598.342		-65.76408	
25.62789	4595.012		-65.69509	
25.682	4591.728		-65.62346	
25.7361	4588.476		-65.54951	
25.79021	4585.242		-65.47363	
25.84432	4582.023		-65.39616	
25.89843	4578.823		-65.31747	
25.95254	4575.634		-65.23785	
26.00665	4572.438		-65.15764	
26.06075	4569.212		-65.07715	
26.11486	4565.931		-64.99676	
26.16897	4562.579		-64.91683	
26.22308	4559.146		-64.83783	
26.27719	4555.633		-64.76019	
26.3313	4552.052		-64.68442	
26.3854	4548.423		-64.61102	
26.43951	4544.769		-64.54046	
26.49362	4541.119		-64.47318	
26.54773	4537.484		-64.40955	
26.60184	4533.86		-64.34985	
26.65595	4530.238		-64.29429	
26.71006	4526.606		-64.24297	
26.76416	4522.953		-64.19593	
26.81827	4519.271		-64.15307	
26.87238	4515.562		-64.11419	
26.92649	4511.83		-64.07903	
26.9806	4508.093		-64.04723	
27.03471	4504.373		-64.01839	
27.08881	4500.688		-63.99202	
27.14292	4497.051		-63.9676	
27.19703	4493.472		-63.9446	
27.25114	4489.966		-63.92247	
27.30525	4486.543		-63.90068	
27.35936	4483.212		-63.87868	
27.41347	4479.966		-63.85595	
27.46757	4476.791		-63.83198	
27.52168	4473.66		-63.80628	
27.57579	4470.548		-63.77839	
27.6299	4467.429		-63.7479	
27.68401	4464.279		-63.71441	
27.73812	4461.075		-63.67759	
27.79222	4457.802		-63.63722	
27.84633	4454.461		-63.59317	
27.90044	4451.07		-63.5454	
27.95455	4447.649		-63.49397	
28.00866	4444.208		-63.43906	
28.06277	4440.754		-63.38099	
28.11687	4437.289		-63.32019	
28.17098	4433.812		-63.2572	
28.22509	4430.318		-63.19264	
28.2792	4426.812		-63.1272	
28.33331	4423.289		-63.06162	
28.38742	4419.749		-62.99665	
28.44152	4416.197		-62.93301	
28.49563	4412.638		-62.87133	
28.54974	4409.073		-62.81216	
28.60385	4405.506		-62.75599	
28.65796	4401.944		-62.70317	
28.71207	4398.398		-62.65405	
28.76617	4394.878		-62.60888	
28.82028	4391.388		-62.56785	
28.87439	4387.923		-62.53114	
28.9285	4384.475		-62.49885	
28.98261	4381.048		-62.47098	
29.03672	4377.647		-62.44746	
29.09083	4374.273		-62.42816	
29.14493	4370.927		-62.41285	
29.19904	4367.604		-62.40125	
29.25315	4364.301		-62.39308	
29.30726	4361.022		-62.38801	
29.36137	4357.771		-62.38568	
29.41548	4354.548		-62.3857	
29.46959	4351.345		-62.38762	
29.52369	4348.154		-62.39094	
29.5778	4344.968		-62.39507	
29.63191	4341.779		-62.3994	
29.68602	4338.576		-62.40333	
29.74013	4335.344		-62.40631	
29.79424	4332.07		-62.40787	
29.84834	4328.754		-62.40758	
29.90245	4325.404		-62.40513	
29.95656	4322.038		-62.40029	
30.01067	4318.667		-62.39289	
30.06478	4315.309		-62.38283	
30.11889	4311.973		-62.37006	
30.17299	4308.664		-62.35457	
30.2271	4305.378		-62.33638	
30.28121	4302.102		-62.31554	
30.33532	4298.816		-62.29213	
30.38943	4295.514		-62.26622	
30.44354	4292.198		-62.23795	
30.49764	4288.865		-62.20742	
30.55175	4285.509		-62.17474	
30.60586	4282.125		-62.13993	
30.65997	4278.707		-62.10299	
30.71408	4275.26		-62.06388	
30.76819	4271.793		-62.02256	
30.82229	4268.317		-61.979	
30.8764	4264.834		-61.93319	
30.93051	4261.354		-61.88514	
30.98462	4257.895		-61.83487	
31.03873	4254.455		-61.78244	
31.09284	4251.029		-61.72791	
31.14695	4247.607		-61.67138	
31.20105	4244.179		-61.61295	
31.25516	4240.736		-61.55276	
31.30927	4237.276		-61.49097	
31.36338	4233.8		-61.42773	
31.41749	4230.309		-61.3632	
31.4716	4226.814		-61.29752	
31.5257	4223.327		-61.23083	
31.57981	4219.858		-61.16334	
31.63392	4216.408		-61.09525	
31.68803	4212.977		-61.02685	
31.74214	4209.561		-60.95845	
31.79625	4206.155		-60.89038	
31.85036	4202.759		-60.82296	
31.90446	4199.376		-60.7565	
31.95857	4196.003		-60.69123	
32.01268	4192.641		-60.62734	
32.06679	4189.302		-60.56493	
32.1209	4185.998		-60.50406	
32.17501	4182.732		-60.44474	
32.22911	4179.499		-60.38692	
32.28322	4176.283		-60.33054	
32.33733	4173.074		-60.27554	
32.39144	4169.868		-60.22186	
32.44555	4166.667		-60.16951	
32.49966	4163.467		-60.11856	
32.55376	4160.277		-60.06904	
32.60787	4157.106		-60.02102	
32.66198	4153.967		-59.97455	
32.71609	4150.876		-59.9297	
32.7702	4147.842		-59.88654	
32.82431	4144.857		-59.84516	
32.87841	4141.905		-59.80567	
32.93252	4138.972		-59.76818	
32.98663	4136.043		-59.73281	
33.04074	4133.101		-59.69971	
33.09485	4130.138		-59.66897	
33.14896	4127.158		-59.64068	
33.20306	4124.17		-59.6149	
33.25717	4121.172		-59.59169	
33.31128	4118.157		-59.57103	
33.36539	4115.116		-59.55291	
33.4195	4112.039		-59.53722	
33.47361	4108.918		-59.5239	
33.52771	4105.758		-59.51285	
33.58183	4102.561		-59.504	
33.63593	4099.34		-59.49729	
33.69004	4096.104		-59.49261	
33.74415	4092.856		-59.48987	
33.79826	4089.592		-59.48887	
33.85237	4086.309		-59.4894	
33.90648	4082.999		-59.49117	
33.96058	4079.655		-59.49385	
34.01469	4076.274		-59.49715	
34.0688	4072.861		-59.50073	
34.12291	4069.425		-59.50429	
34.17702	4065.975		-59.50747	
34.23112	4062.519		-59.5099	
34.28523	4059.068		-59.51116	
34.33934	4055.643		-59.51079	
34.39345	4052.265		-59.50832	
34.44756	4048.944		-59.5033	
34.50167	4045.678		-59.49536	
34.55577	4042.45		-59.4842	
34.60988	4039.23		-59.46958	
34.66399	4036.003		-59.45134	
34.7181	4032.761		-59.42937	
34.77221	4029.507		-59.40355	
34.82632	4026.246		-59.37376	
34.88042	4022.989		-59.33996	
34.93454	4019.733		-59.30209	
34.98864	4016.47		-59.26017	
35.04275	4013.186		-59.21426	
35.09686	4009.877		-59.16441	
35.15097	4006.55		-59.11081	
35.20508	4003.211		-59.05365	
35.25919	3999.871		-58.99321	
35.31329	3996.54		-58.9298	
35.3674	3993.224		-58.86378	
35.42151	3989.929		-58.79556	
35.47562	3986.656		-58.72555	
35.52973	3983.409		-58.65417	
35.58384	3980.186		-58.58184	
35.63794	3976.979		-58.50895	
35.69205	3973.777		-58.43591	
35.74616	3970.574		-58.3631	
35.80027	3967.366		-58.29089	
35.85438	3964.157		-58.21964	
35.90849	3960.965		-58.14972	
35.96259	3957.803		-58.08152	
36.0167	3954.688		-58.01547	
36.07081	3951.63		-57.95198	
36.12492	3948.637		-57.89151	
36.17903	3945.703		-57.83445	
36.23314	3942.813		-57.78115	
36.28724	3939.95		-57.73189	
36.34135	3937.108		-57.68685	
36.39546	3934.278		-57.64615	
36.44957	3931.453		-57.60987	
36.50368	3928.62		-57.57804	
36.55779	3925.763		-57.55069	
36.6119	3922.867		-57.52778	
36.666	3919.926		-57.50926	
36.72011	3916.933		-57.49498	
36.77422	3913.896		-57.48472	
36.82833	3910.829		-57.47818	
36.88244	3907.756		-57.47504	
36.93655	3904.696		-57.4749	
36.99065	3901.646		-57.47736	
37.04476	3898.598		-57.48194	
37.09887	3895.542		-57.48818	
37.15298	3892.47		-57.49562	
37.20709	3889.382		-57.50385	
37.2612	3886.277		-57.51247	
37.3153	3883.158		-57.52119	
37.36941	3880.028		-57.52972	
37.42352	3876.886		-57.53775	
37.47763	3873.735		-57.54503	
37.53174	3870.585		-57.55125	
37.58585	3867.444		-57.55615	
37.63995	3864.319		-57.55951	
37.69407	3861.21		-57.56111	
37.74817	3858.115		-57.56081	
37.80228	3855.034		-57.55845	
37.85639	3851.956		-57.55387	
37.9105	3848.861		-57.54691	
37.96461	3845.738		-57.53741	
38.01871	3842.586		-57.52523	
38.07282	3839.404		-57.51024	
38.12693	3836.193		-57.49235	
38.18104	3832.957		-57.47149	
38.23515	3829.697		-57.44763	
38.28926	3826.418		-57.42072	
38.34336	3823.126		-57.39076	
38.39747	3819.827		-57.35778	
38.45158	3816.527		-57.32187	
38.50569	3813.226		-57.28314	
38.5598	3809.925		-57.24173	
38.61391	3806.617		-57.19781	
38.66801	3803.295		-57.15157	
38.72212	3799.954		-57.10318	
38.77623	3796.591		-57.05284	
38.83034	3793.215		-57.00072	
38.88445	3789.854		-56.94698	
38.93856	3786.533		-56.8917	
38.99266	3783.27		-56.83495	
39.04677	3780.071		-56.7767	
39.10088	3776.936		-56.71688	
39.15499	3773.848		-56.65542	
39.2091	3770.792		-56.59225	
39.26321	3767.763		-56.5273	
39.31731	3764.763		-56.46057	
39.37143	3761.798		-56.39209	
39.42553	3758.871		-56.32194	
39.47964	3755.99		-56.25025	
39.53375	3753.156		-56.17719	
39.58786	3750.363		-56.10293	
39.64197	3747.594		-56.02769	
39.69608	3744.83		-55.95174	
39.75018	3742.065		-55.87537	
39.80429	3739.296		-55.79894	
39.8584	3736.515		-55.72278	
39.91251	3733.719		-55.64725	
39.96662	3730.911		-55.5727	
40.02073	3728.088		-55.49946	
40.07483	3725.243		-55.42783	
40.12894	3722.368		-55.35806	
40.18305	3719.459		-55.29035	
40.23716	3716.518		-55.22487	
40.29127	3713.549		-55.16174	
40.34538	3710.565		-55.10107	
40.39948	3707.582		-55.04298	
40.45359	3704.61		-54.98754	
40.5077	3701.658		-54.9348	
40.56181	3698.726		-54.8848	
40.61592	3695.803		-54.83756	
40.67002	3692.874		-54.79312	
40.72414	3689.925		-54.7515	
40.77824	3686.951		-54.71274	
40.83235	3683.949		-54.67685	
40.88646	3680.92		-54.6438	
40.94057	3677.871		-54.61349	
40.99468	3674.809		-54.58575	
41.04879	3671.756		-54.56036	
41.10289	3668.732		-54.53701	
41.157	3665.743		-54.51535	
41.21111	3662.791		-54.49502	
41.26522	3659.863		-54.47567	
41.31933	3656.941		-54.45696	
41.37344	3654.015		-54.43864	
41.42754	3651.081		-54.42051	
41.48165	3648.137		-54.40241	
41.53576	3645.186		-54.38424	
41.58987	3642.235		-54.36591	
41.64398	3639.287		-54.34738	
41.69809	3636.342		-54.32869	
41.75219	3633.39		-54.30994	
41.8063	3630.417		-54.29129	
41.86041	3627.409		-54.27303	
41.91452	3624.363		-54.25549	
41.96863	3621.286		-54.23903	
42.02274	3618.193		-54.22403	
42.07684	3615.1		-54.2108	
42.13095	3612.022		-54.19957	
42.18506	3608.97		-54.19048	
42.23917	3605.945		-54.18359	
42.29328	3602.941		-54.17887	
42.34739	3599.954		-54.17622	
42.4015	3596.979		-54.17542	
42.4556	3594.011		-54.17616	
42.50971	3591.054		-54.17809	
42.56382	3588.109		-54.1808	
42.61793	3585.176		-54.18386	
42.67204	3582.256		-54.18678	
42.72615	3579.35		-54.18905	
42.78025	3576.46		-54.19018	
42.83436	3573.588		-54.18964	
42.88847	3570.736		-54.18696	
42.94258	3567.904		-54.18168	
42.99669	3565.095		-54.17342	
43.0508	3562.315		-54.16182	
43.1049	3559.567		-54.1466	
43.15901	3556.855		-54.12753	
43.21312	3554.174		-54.1044	
43.26723	3551.509		-54.07709	
43.32134	3548.842		-54.0455	
43.37545	3546.163		-54.00964	
43.42955	3543.465		-53.96959	
43.48367	3540.743		-53.92553	
43.53777	3537.993		-53.87771	
43.59188	3535.206		-53.82648	
43.64599	3532.376		-53.77227	
43.7001	3529.507		-53.71561	
43.7542	3526.604		-53.65708	
43.80832	3523.675		-53.59735	
43.86242	3520.728		-53.53715	
43.91653	3517.76		-53.47721	
43.97064	3514.76		-53.4183	
44.02475	3511.718		-53.3611	
44.07886	3508.63		-53.30621	
44.13297	3505.496		-53.2541	
44.18707	3502.319		-53.20509	
44.24118	3499.109		-53.15939	
44.29529	3495.88		-53.11708	
44.3494	3492.647		-53.07813	
44.40351	3489.421		-53.04236	
44.45761	3486.208		-53.00954	
44.51172	3483.015		-52.97937	
44.56583	3479.858		-52.95144	
44.61994	3476.76		-52.9253	
44.67405	3473.734		-52.9004	
44.72816	3470.778		-52.87613	
44.78226	3467.879		-52.85185	
44.83637	3465.02		-52.8269	
44.89048	3462.187		-52.80066	
44.94459	3459.378		-52.77255	
44.9987	3456.59		-52.74203	
45.05281	3453.821		-52.70869	
45.10691	3451.07		-52.67214	
45.16103	3448.344		-52.63209	
45.21513	3445.654		-52.58829	
45.26924	3443.007		-52.54057	
45.32335	3440.406		-52.48883	
45.37746	3437.847		-52.43305	
45.43157	3435.322		-52.37331	
45.48568	3432.817		-52.3098	
45.53978	3430.317		-52.24281	
45.59389	3427.802		-52.17272	
45.648	3425.252		-52.09999	
45.70211	3422.656		-52.02514	
45.75622	3420.008		-51.94874	
45.81033	3417.311		-51.87136	
45.86443	3414.571		-51.79362	
45.91854	3411.789		-51.71615	
45.97265	3408.962		-51.63964	
46.02676	3406.092		-51.5648	
46.08087	3403.185		-51.49225	
46.13498	3400.248		-51.4226	
46.18908	3397.286		-51.35632	
46.24319	3394.31		-51.29379	
46.2973	3391.328		-51.23531	
46.35141	3388.354		-51.18102	
46.40552	3385.39		-51.131	
46.45963	3382.436		-51.08528	
46.51373	3379.495		-51.04375	
46.56784	3376.58		-51.00625	
46.62195	3373.71		-50.97256	
46.67606	3370.903		-50.94237	
46.73017	3368.162		-50.91534	
46.78428	3365.479		-50.89111	
46.83839	3362.841		-50.86928	
46.89249	3360.237		-50.84946	
46.9466	3357.65		-50.83126	
47.00071	3355.068		-50.81427	
47.05482	3352.473		-50.79811	
47.10893	3349.854		-50.7824	
47.16304	3347.208		-50.76682	
47.21714	3344.539		-50.75105	
47.27125	3341.854		-50.73476	
47.32536	3339.162		-50.71767	
47.37947	3336.471		-50.69953	
47.43358	3333.784		-50.68016	
47.48769	3331.103		-50.65944	
47.54179	3328.416		-50.63731	
47.5959	3325.707		-50.61377	
47.65001	3322.962		-50.58883	
47.70412	3320.177		-50.56256	
47.75823	3317.351		-50.53508	
47.81234	3314.485		-50.5065	
47.86644	3311.589		-50.477	
47.92056	3308.669		-50.44677	
47.97466	3305.734		-50.41606	
48.02877	3302.801		-50.38507	
48.08288	3299.89		-50.35402	
48.13699	3297.02		-50.32307	
48.1911	3294.203		-50.29239	
48.2452	3291.447		-50.26207	
48.29931	3288.754		-50.23218	
48.35342	3286.121		-50.20277	
48.40753	3283.538		-50.17383	
48.46164	3280.982		-50.14533	
48.51575	3278.424		-50.11716	
48.56985	3275.842		-50.08918	
48.62396	3273.234		-50.06118	
48.67807	3270.604		-50.03294	
48.73218	3267.957		-50.00425	
48.78629	3265.301		-49.97491	
48.8404	3262.654		-49.94478	
48.8945	3260.029		-49.91374	
48.94861	3257.424		-49.88173	
49.00272	3254.827		-49.84871	
49.05683	3252.22		-49.81474	
49.11094	3249.593		-49.77991	
49.16505	3246.941		-49.74436	
49.21915	3244.265		-49.70823	
49.27326	3241.557		-49.67166	
49.32737	3238.806		-49.63472	
49.38148	3236.013		-49.59747	
49.43559	3233.19		-49.55992	
49.4897	3230.36		-49.52208	
49.5438	3227.541		-49.48392	
49.59792	3224.738		-49.44545	
49.65202	3221.957		-49.40672	
49.70613	3219.205		-49.36779	
49.76024	3216.49		-49.32882	
49.81435	3213.813		-49.28995	
49.86846	3211.168		-49.25131	
49.92257	3208.545		-49.213	
49.97667	3205.928		-49.17507	
50.03078	3203.304		-49.13751	
50.08489	3200.666		-49.10028	
50.139	3198.001		-49.0633	
50.19311	3195.303		-49.02646	
50.24722	3192.573		-48.98966	
50.30132	3189.825		-48.95282	
50.35543	3187.088		-48.91588	
50.40954	3184.389		-48.87877	
50.46365	3181.743		-48.84145	
50.51776	3179.145		-48.80386	
50.57187	3176.582		-48.766	
50.62597	3174.045		-48.72787	
50.68008	3171.524		-48.68953	
50.73419	3169.01		-48.65104	
50.7883	3166.49		-48.61251	
50.84241	3163.963		-48.57407	
50.89651	3161.421		-48.5359	
50.95063	3158.854		-48.49816	
51.00473	3156.257		-48.46106	
51.05884	3153.624		-48.42476	
51.11295	3150.958		-48.38947	
51.16706	3148.276		-48.35541	
51.22117	3145.6		-48.32278	
51.27528	3142.943		-48.29178	
51.32938	3140.306		-48.26247	
51.38349	3137.682		-48.23485	
51.4376	3135.066		-48.20882	
51.49171	3132.456		-48.18417	
51.54582	3129.844		-48.16061	
51.59993	3127.223		-48.13777	
51.65403	3124.588		-48.11527	
51.70814	3121.939		-48.09274	
51.76225	3119.282		-48.06979	
51.81636	3116.626		-48.04606	
51.87047	3113.984		-48.02118	
51.92458	3111.366		-47.99474	
51.97868	3108.777		-47.96639	
52.03279	3106.221		-47.93577	
52.0869	3103.698		-47.90255	
52.14101	3101.2		-47.86646	
52.19512	3098.718		-47.82722	
52.24923	3096.237		-47.78464	
52.30333	3093.746		-47.73859	
52.35744	3091.241		-47.68898	
52.41155	3088.725		-47.63579	
52.46566	3086.206		-47.5791	
52.51977	3083.694		-47.51905	
52.57388	3081.189		-47.45589	
52.62799	3078.69		-47.38995	
52.68209	3076.194		-47.32166	
52.7362	3073.7		-47.25147	
52.79031	3071.202		-47.1799	
52.84442	3068.688		-47.10748	
52.89853	3066.151		-47.03474	
52.95264	3063.583		-46.96224	
53.00674	3060.978		-46.8905	
53.06085	3058.328		-46.82	
53.11496	3055.623		-46.75125	
53.16907	3052.865		-46.68467	
53.22318	3050.063		-46.6207	
53.27729	3047.228		-46.55969	
53.33139	3044.375		-46.50194	
53.3855	3041.527		-46.44764	
53.43961	3038.711		-46.39691	
53.49372	3035.948		-46.3497	
53.54783	3033.252		-46.30589	
53.60194	3030.626		-46.26523	
53.65604	3028.06		-46.22743	
53.71016	3025.534		-46.19213	
53.76426	3023.036		-46.15892	
53.81837	3020.557		-46.12736	
53.87248	3018.096		-46.09695	
53.92659	3015.66		-46.06722	
53.9807	3013.256		-46.03768	
54.03481	3010.892		-46.0079	
54.08891	3008.577		-45.97749	
54.14302	3006.314		-45.94608	
54.19713	3004.1		-45.91336	
54.25124	3001.923		-45.87909	
54.30535	2999.769		-45.84314	
54.35946	2997.62		-45.8054	
54.41356	2995.461		-45.76588	
54.46767	2993.283		-45.72462	
54.52178	2991.083		-45.68173	
54.57589	2988.855		-45.63734	
54.63	2986.598		-45.59164	
54.6841	2984.313		-45.54482	
54.73821	2981.999		-45.49711	
54.79232	2979.653		-45.44881	
54.84643	2977.271		-45.40023	
54.90054	2974.847		-45.35178	
54.95465	2972.38		-45.30391	
55.00875	2969.87		-45.2571	
55.06286	2967.315		-45.21186	
55.11697	2964.72		-45.16864	
55.17108	2962.094		-45.12788	
55.22519	2959.446		-45.08997	
55.2793	2956.79		-45.0552	
55.3334	2954.137		-45.02377	
55.38752	2951.496		-44.99578	
55.44162	2948.871		-44.97123	
55.49573	2946.269		-44.94999	
55.54984	2943.696		-44.93184	
55.60395	2941.155		-44.91646	
55.65806	2938.651		-44.90344	
55.71217	2936.182		-44.89228	
55.76627	2933.74		-44.88243	
55.82038	2931.314		-44.87327	
55.87449	2928.896		-44.86416	
55.9286	2926.475		-44.85443	
55.98271	2924.038		-44.84338	
56.03682	2921.585		-44.83037	
56.09092	2919.126		-44.81475	
56.14503	2916.671		-44.79595	
56.19914	2914.228		-44.77348	
56.25325	2911.803		-44.74693	
56.30736	2909.403		-44.71601	
56.36147	2907.021		-44.68053	
56.41557	2904.65		-44.64047	
56.46968	2902.284		-44.59584	
56.52379	2899.921		-44.54677	
56.5779	2897.55		-44.49343	
56.63201	2895.162		-44.43604	
56.68612	2892.752		-44.37489	
56.74023	2890.326		-44.31028	
56.79433	2887.888		-44.24259	
56.84844	2885.444		-44.17223	
56.90255	2883		-44.09967	
56.95666	2880.564		-44.02541	
57.01077	2878.146		-43.95003	
57.06488	2875.749		-43.87413	
57.11898	2873.371		-43.79834	
57.17309	2871.003		-43.72324	
57.2272	2868.635		-43.64941	
57.28131	2866.261		-43.57736	
57.33542	2863.879		-43.50752	
57.38953	2861.492		-43.44027	
57.44363	2859.101		-43.37588	
57.49774	2856.706		-43.31454	
57.55185	2854.305		-43.25632	
57.60596	2851.901		-43.20125	
57.66007	2849.504		-43.14929	
57.71418	2847.122		-43.10035	
57.76828	2844.761		-43.05434	
57.82239	2842.432		-43.01112	
57.8765	2840.139		-42.97056	
57.93061	2837.881		-42.93251	
57.98472	2835.658		-42.89677	
58.03883	2833.465		-42.86315	
58.09293	2831.293		-42.83145	
58.14705	2829.132		-42.80145	
58.20115	2826.972		-42.77297	
58.25526	2824.808		-42.74586	
58.30937	2822.632		-42.72002	
58.36348	2820.44		-42.69539	
58.41759	2818.233		-42.67197	
58.47169	2816.024		-42.64981	
58.5258	2813.823		-42.62898	
58.57991	2811.631		-42.60957	
58.63402	2809.447		-42.5917	
58.68813	2807.265		-42.5755	
58.74224	2805.077		-42.56107	
58.79634	2802.875		-42.54849	
58.85045	2800.648		-42.53784	
58.90456	2798.386		-42.52913	
58.95867	2796.08		-42.52235	
59.01278	2793.732		-42.51744	
59.06689	2791.352		-42.51428	
59.12099	2788.95		-42.51269	
59.1751	2786.538		-42.51242	
59.22921	2784.126		-42.51317	
59.28332	2781.719		-42.51461	
59.33743	2779.322		-42.51638	
59.39154	2776.939		-42.51805	
59.44564	2774.571		-42.51923	
59.49975	2772.219		-42.51946	
59.55386	2769.879		-42.51831	
59.60797	2767.553		-42.51537	
59.66208	2765.239		-42.51024	
59.71619	2762.93		-42.50256	
59.77029	2760.625		-42.49199	
59.82441	2758.323		-42.47823	
59.87851	2756.024		-42.46103	
59.93262	2753.727		-42.44014	
59.98673	2751.435		-42.41538	
60.04084	2749.151		-42.38656	
60.09495	2746.874		-42.35353	
60.14906	2744.601		-42.31617	
60.20316	2742.328		-42.2744	
60.25727	2740.051		-42.22816	
60.31138	2737.763		-42.17746	
60.36549	2735.455		-42.12231	
60.4196	2733.124		-42.06284	
60.47371	2730.771		-41.99915	
60.52781	2728.4		-41.9314	
60.58192	2726.016		-41.8598	
60.63603	2723.629		-41.78457	
60.69014	2721.245		-41.70596	
60.74425	2718.868		-41.62422	
60.79836	2716.501		-41.5396	
60.85246	2714.15		-41.45238	
60.90657	2711.807		-41.36279	
60.96068	2709.467		-41.27103	
61.01479	2707.124		-41.17725	
61.0689	2704.772		-41.08152	
61.123	2702.413		-40.98386	
61.17712	2700.047		-40.88416	
61.23122	2697.68		-40.78227	
61.28533	2695.323		-40.67801	
61.33944	2692.988		-40.57114	
61.39355	2690.681		-40.46142	
61.44766	2688.411		-40.34857	
61.50177	2686.182		-40.23236	
61.55587	2684.005		-40.11251	
61.60998	2681.887		-39.98882	
61.66409	2679.829		-39.8611	
61.7182	2677.823		-39.72916	
61.77231	2675.863		-39.59287	
61.82642	2673.933		-39.45209	
61.88052	2672.011		-39.3067	
61.93463	2670.082		-39.15663	
61.98874	2668.135		-39.0018	
62.04285	2666.17		-38.84214	
62.09696	2664.191		-38.67759	
62.15107	2662.198		-38.50809	
62.20517	2660.194		-38.33357	
62.25928	2658.182		-38.15398	
62.31339	2656.166		-37.96926	
62.3675	2654.147		-37.77942	
62.42161	2652.122		-37.58442	
62.47572	2650.086		-37.38416	
62.52982	2648.038		-37.17855	
62.58393	2645.983		-36.9674	
62.63804	2643.923		-36.7505	
62.69215	2641.855		-36.52753	
62.74626	2639.778		-36.29812	
62.80037	2637.695		-36.06182	
62.85448	2635.599		-35.81812	
62.90858	2633.484		-35.56647	
62.96269	2631.349		-35.30623	
63.0168	2629.208		-35.03672	
63.07091	2627.08		-34.7572	
63.12502	2624.978		-34.46684	
63.17913	2622.916		-34.16485	
63.23323	2620.903		-33.85035	
63.28734	2618.94		-33.52246	
63.34145	2617.025		-33.18028	
63.39556	2615.151		-32.82288	
63.44967	2613.318		-32.44937	
63.50378	2611.521		-32.05876	
63.55788	2609.751		-31.65004	
63.61199	2608.006		-31.22222	
63.6661	2606.281		-30.77427	
63.72021	2604.577		-30.30527	
63.77432	2602.888		-29.81427	
63.82843	2601.207		-29.3004	
63.88253	2599.528		-28.76287	
63.93665	2597.847		-28.2009	
63.99075	2596.165		-27.61395	
64.04486	2594.484		-27.00135	
64.09897	2592.803		-26.36255	
64.15308	2591.121		-25.69706	
64.20718	2589.44		-25.00444	
64.26129	2587.773		-24.28431	
64.3154	2586.131		-23.53632	
64.36951	2584.523		-22.76002	
64.42362	2582.949		-21.95525	
64.47773	2581.41		-21.12152	
64.53184	2579.908		-20.25837	
64.58595	2578.445		-19.36528	
64.64005	2577.021		-18.44168	
64.69416	2575.639		-17.48686	
64.74827	2574.308		-16.50003	
64.80238	2573.037		-15.48031	
64.85648	2571.824		-14.42671	
64.9106	2570.667		-13.33801	
64.96471	2569.565		-12.21337	
65.01881	2568.523		-11.05142	
65.07292	2567.544		-9.850914	
65.12703	2566.637		-8.610569	
65.18114	2565.818		-7.329132	
65.23524	2565.101		-6.005347	
65.28935	2564.498		-4.637962	
65.34346	2564.01		-3.225713	
65.39757	2563.644		-1.767312	
65.45168	2563.394		-0.261212	
65.50579	2563.252		1.293529	
65.5599	2563.204		2.898506	
65.61401	2563.242		4.555116	
65.66811	2563.356		6.264766	
65.72222	2563.536		8.028844	
65.77633	2563.765		9.848701	
65.83044	2564.034		11.72565	
65.88454	2564.336		13.66099	
65.93865	2564.684		15.65599	
65.99277	2565.096		17.71217	
66.04688	2565.597		19.83013	
66.10098	2566.208		22.01126	
66.15509	2566.944		24.25662	
66.2092	2567.813		26.56723	
66.26331	2568.811		28.94405	
66.31741	2569.927		31.38809	
66.37152	2571.148		33.90038	
66.42563	2572.458		36.482	
66.47974	2573.856		39.13405	
66.53384	2575.344		41.8577	
66.58796	2576.937		44.65454	
66.64207	2578.647		47.52508	
66.69617	2580.487		50.47111	
66.75028	2582.465		53.4941	
66.80439	2584.59		56.5956	
66.8585	2586.872		59.77721	
66.91261	2589.327		63.0406	
66.96671	2591.973		66.38754	
67.02082	2594.824		69.81982	
67.07493	2597.888		73.33925	
67.12904	2601.171		76.94823	
67.18315	2604.67		80.64762	
67.23726	2608.381		84.43983	
67.29137	2612.299		88.32681	
67.34547	2616.416		92.31046	
67.39958	2620.725		96.39265	
67.45369	2625.227		100.5752	
67.5078	2629.922		104.8598	
67.5619	2634.819		109.248	
67.61601	2639.935		113.7412	
67.67013	2645.287		118.3412	
67.72424	2650.893		123.0478	
67.77834	2656.767		127.8624	
67.83245	2662.917		132.7857	
67.88656	2669.342		137.8181	
67.94067	2676.039		142.9599	
67.99477	2683		148.2111	
68.04888	2690.224		153.5716	
68.10299	2697.717		159.0409	
68.1571	2705.494		164.6186	
68.21121	2713.574		170.3047	
68.26532	2721.966		176.0966	
68.31943	2730.674		181.9941	
68.37354	2739.698		187.996	
68.42764	2749.037		194.1012	
68.48175	2758.693		200.3081	
68.53586	2768.667		206.6153	
68.58997	2778.965		213.0213	
68.64407	2789.599		219.5243	
68.69818	2800.586		226.1228	
68.75229	2811.941		232.815	
68.8064	2823.685		239.6002	
68.86051	2835.829		246.4748	
68.91462	2848.388		253.4382	
68.96873	2861.366		260.4886	
69.02283	2874.761		267.6245	
69.07694	2888.572		274.8439	
69.13105	2902.806		282.1451	
69.18516	2917.478		289.5262	
69.23927	2932.603		296.9852	
69.29337	2948.19		304.5197	
69.34749	2964.243		312.1284	
69.4016	2980.754		319.8062	
69.4557	2997.729		327.5508	
69.50981	3015.177		335.3585	
69.56392	3033.108		343.2248	
69.61803	3051.534		351.1445	
69.67213	3070.462		359.112	
69.72624	3089.899		367.1207	
69.78035	3109.851		375.1634	
69.83446	3130.321		383.2318	
69.88857	3151.31		391.3183	
69.94268	3172.809		399.4107	
69.99679	3194.815		407.4995	
70.0509	3217.32		415.573	
70.105	3240.31		423.619	
70.15911	3263.775		431.6241	
70.21322	3287.705		439.5739	
70.26733	3312.091		447.4538	
70.32143	3336.93		455.2477	
70.37554	3362.224		462.9393	
70.42966	3387.989		470.5126	
70.48376	3414.229		477.9477	
70.53787	3440.95		485.2276	
70.59198	3468.149		492.3337	
70.64609	3495.815		499.2473	
70.7002	3523.93		505.9496	
70.7543	3552.477		512.4218	
70.80841	3581.449		518.6451	
70.86252	3610.856		524.6017	
70.91663	3640.718		530.2737	
70.97074	3671.057		535.6447	
71.02485	3701.882		540.697	
71.07896	3733.201		545.4156	
71.13306	3765.015		549.7863	
71.18717	3797.339		553.7952	
71.24128	3830.193		557.4301	
71.29539	3863.591		560.6797	
71.34949	3897.543		563.5336	
71.4036	3932.047		565.983	
71.45771	3967.09		568.0202	
71.51182	4002.651		569.6385	
71.56593	4038.717		570.8331	
71.62004	4075.247		571.5998	
71.67415	4112.205		571.9363	
71.72826	4149.546		571.8414	
71.78236	4187.22		571.3153	
71.83647	4225.165		570.3594	
71.89058	4263.313		568.9763	
71.94469	4301.598		567.1696	
71.99879	4339.948		564.944	
72.0529	4378.291		562.3052	
72.10702	4416.56		559.2592	
72.16113	4454.676		555.814	
72.21523	4492.575		551.977	
72.26934	4530.188		547.7567	
72.32345	4567.437		543.162	
72.37756	4604.243		538.2023	
72.43166	4640.526		532.8876	
72.48577	4676.212		527.2282	
72.53988	4711.23		521.2347	
72.59399	4745.521		514.9182	
72.6481	4779.034		508.289	
72.70221	4811.708		501.3606	
72.75632	4843.484		494.144	
72.81042	4874.301		486.6518	
72.86453	4904.108		478.8968	
72.91864	4932.87		470.8921	
72.97275	4960.577		462.6515	
73.02686	4987.231		454.1892	
73.08096	5012.832		445.5201	
73.13507	5037.378		436.6594	
73.18919	5060.887		427.6218	
73.24329	5083.373		418.4262	
73.2974	5104.863		409.0884	
73.35151	5125.386		399.6257	
73.40562	5144.957		390.0561	
73.45972	5163.593		380.3979	
73.51383	5181.317		370.6697	
73.56794	5198.157		360.8907	
73.62205	5214.143		351.0801	
73.67616	5229.302		341.2576	
73.73027	5243.669		331.4415	
73.78438	5257.274		321.6543	
73.83849	5270.15		311.9142	
73.89259	5282.339		302.2406	
73.9467	5293.897		292.6526	
74.00081	5304.887		283.1686	
74.05492	5315.371		273.8067	
74.10902	5325.415		264.5839	
74.16313	5335.081		255.5163	
74.21724	5344.429		246.6192	
74.27135	5353.509		237.9065	
74.32546	5362.359		229.39	
74.37957	5371.003		221.0839	
74.43368	5379.448		212.9973	
74.48779	5387.683		205.1392	
74.54189	5395.686		197.5172	
74.596	5403.427		190.1373	
74.65011	5410.885		183.0041	
74.70422	5418.04		176.1207	
74.75832	5424.887		169.4885	
74.81243	5431.44		163.1076	
74.86655	5437.727		156.9757	
74.92065	5443.776		151.0917	
74.97476	5449.625		145.4506	
75.02887	5455.301		140.0471	
75.08298	5460.814		134.8748	
75.13708	5466.155		129.9263	
75.19119	5471.313		125.1934	
75.2453	5476.281		120.667	
75.29941	5481.058		116.3379	
75.35352	5485.637		112.196	
75.40763	5490.01		108.2309	
75.46174	5494.168		104.4332	
75.51585	5498.113		100.792	
75.56995	5501.853		97.29711	
75.62406	5505.421		93.93849	
75.67817	5508.866		90.70643	
75.73228	5512.24		87.59158	
75.78638	5515.586		84.58501	
75.84049	5518.942		81.67831	
75.8946	5522.333		78.86353	
75.94872	5525.775		76.13292	
76.00282	5529.268		73.48051	
76.05693	5532.798		70.89977	
76.11104	5536.35		68.38517	
76.16515	5539.909		65.9319	
76.21925	5543.46		63.53583	
76.27336	5546.983		61.19353	
76.32747	5550.458		58.90226	
76.38158	5553.874		56.65994	
76.43568	5557.22		54.46511	
76.4898	5560.498		52.31653	
76.54391	5563.715		50.21437	
76.59801	5566.873		48.15829	
76.65212	5569.953		46.14855	
76.70623	5572.935		44.18567	
76.76034	5575.804		42.27031	
76.81445	5578.547		40.40329	
76.86855	5581.152		38.58548	
76.92266	5583.615		36.81774	
76.97677	5585.938		35.10088	
77.03088	5588.132		33.43553	
77.08499	5590.202		31.82189	
77.1391	5592.15		30.26064	
77.19321	5593.965		28.7515	
77.24731	5595.634		27.2943	
77.30142	5597.143		25.88866	
77.35553	5598.486		24.53405	
77.40964	5599.66		23.22977	
77.46375	5600.667		21.97499	
77.51785	5601.499		20.76883	
77.57196	5602.138		19.61036	
77.62608	5602.569		18.49852	
77.68018	5602.781		17.43278	
77.73429	5602.771		16.41218	
77.7884	5602.551		15.43597	
77.84251	5602.146		14.50346	
77.89661	5601.58		13.61395	
77.95072	5600.872		12.76682	
78.00483	5600.037		11.96149	
78.05894	5599.087		11.1975	
78.11304	5598.042		10.47453	
78.16716	5596.928		9.79232	
78.22127	5595.767		9.151043	
78.27538	5594.581		8.550763	
78.32948	5593.39		7.991822	
78.38359	5592.208		7.47472	
78.4377	5591.037		7.000086	
78.49181	5589.881		6.568658	
78.54591	5588.762		6.181246	
78.60002	5587.705		5.838717	
78.65413	5586.733		5.541956	
78.70824	5585.869		5.291788	
78.76235	5585.137		5.089085	
78.81646	5584.555		4.934524	
78.87057	5584.14		4.828718	
78.92467	5583.901		4.772135	
78.97878	5583.835		4.765051	
79.03289	5583.938		4.807498	
79.087	5584.214		4.899216	
79.14111	5584.656		5.039631	
79.19521	5585.252		5.227872	
79.24932	5585.979		5.462796	
79.30344	5586.806		5.742991	
79.35754	5587.707		6.066594	
79.41165	5588.666		6.431528	
79.46576	5589.672		6.835365	
79.51987	5590.712		7.275382	
79.57397	5591.761		7.748583	
79.62808	5592.789		8.251744	
79.68219	5593.774		8.781444	
79.7363	5594.707		9.334101	
79.79041	5595.602		9.90601	
79.84452	5596.49		10.49343	
79.89863	5597.397		11.09225	
79.95274	5598.332		11.69856	
80.00684	5599.297		12.30835	
80.06095	5600.286		12.91768	
80.11506	5601.293		13.52275	
80.16917	5602.302		14.11992	
80.22327	5603.298		14.70575	
80.27738	5604.267		15.27701	
80.33149	5605.205		15.83069	
80.3856	5606.107		16.36409	
80.43971	5606.958		16.87459	
80.49382	5607.738		17.36009	
80.54793	5608.453		17.81881	
80.60204	5609.126		18.24926	
80.65614	5609.793		18.65031	
80.71025	5610.487		19.02117	
80.76436	5611.242		19.36135	
80.81847	5612.082		19.67074	
80.87257	5613.031		19.94956	
80.92669	5614.101		20.19835	
80.9808	5615.292		20.41781	
81.0349	5616.594		20.60894	
81.08901	5617.989		20.77285	
81.14312	5619.449		20.91079	
81.19723	5620.943		21.02408	
81.25134	5622.44		21.11408	
81.30544	5623.914		21.18218	
81.35955	5625.35		21.22966	
81.41366	5626.758		21.2577	
81.46777	5628.159		21.26728	
81.52188	5629.573		21.25922	
81.57599	5631.007		21.23409	
81.6301	5632.46		21.1922	
81.6842	5633.927		21.13367	
81.73831	5635.408		21.05841	
81.79242	5636.922		20.96609	
81.84653	5638.477		20.85619	
81.90063	5640.067		20.72793	
81.95474	5641.678		20.58037	
82.00885	5643.291		20.41244	
82.06297	5644.886		20.22298	
82.11707	5646.44		20.01092	
82.17118	5647.931		19.77511	
82.22529	5649.347		19.51439	
82.2794	5650.691		19.22756	
82.3335	5651.978		18.91336	
82.38761	5653.214		18.57049	
82.44172	5654.397		18.19765	
82.49583	5655.521		17.79362	
82.54993	5656.586		17.35727	
82.60405	5657.604		16.88749	
82.65816	5658.594		16.38347	
82.71227	5659.57		15.84437	
82.76637	5660.536		15.26955	
82.82048	5661.485		14.65861	
82.87459	5662.412		14.01129	
82.9287	5663.309		13.32761	
82.9828	5664.173		12.60779	
83.03691	5664.995		11.8523	
83.09102	5665.776		11.06178	
83.14513	5666.515		10.23693	
83.19924	5667.218		9.378961	
83.25335	5667.894		8.488867	
83.30746	5668.548		7.567855	
83.36156	5669.184		6.617168	
83.41567	5669.815		5.638036	
83.46978	5670.448		4.631644	
83.52389	5671.089		3.599118	
83.578	5671.73		2.54153	
83.6321	5672.348		1.459895	
83.68622	5672.912		0.3550158	
83.74033	5673.411		-0.7718993	
83.79443	5673.835		-1.920192	
83.84854	5674.181		-3.089139	
83.90265	5674.436		-4.278101	
83.95676	5674.597		-5.48647	
84.01086	5674.657		-6.713655	
84.06497	5674.616		-7.959054	
84.11908	5674.467		-9.222029	
84.17319	5674.212		-10.50193	
84.2273	5673.853		-11.79834	
84.28141	5673.396		-13.11033	
84.33552	5672.835		-14.43764	
84.38963	5672.169		-15.77989	
84.44373	5671.388		-17.13672	
84.49784	5670.483		-18.50779	
84.55195	5669.45		-19.89274	
84.60606	5668.294		-21.29122	
84.66016	5667.022		-22.70284	
84.71427	5665.647		-24.12715	
84.76838	5664.173		-25.56365	
84.82249	5662.604		-27.01196	
84.8766	5660.947		-28.47099	
84.93071	5659.211		-29.94016	
84.98482	5657.409		-31.41852	
85.03893	5655.555		-32.90504	
85.09303	5653.649		-34.39856	
85.14714	5651.675		-35.89785	
85.20125	5649.616		-37.40156	
85.25536	5647.454		-38.90828	
85.30946	5645.183		-40.41652	
85.36358	5642.799		-41.92504	
85.41769	5640.309		-43.43196	
85.47179	5637.716		-44.93611	
85.5259	5635.03		-46.43615	
85.58001	5632.26		-47.93084	
85.63412	5629.416		-49.41898	
85.68822	5626.512		-50.89947	
85.74233	5623.568		-52.3713	
85.79644	5620.6		-53.83356	
85.85055	5617.608		-55.28545	
85.90466	5614.581		-56.72639	
85.95877	5611.493		-58.15522	
86.01288	5608.317		-59.57142	
86.06699	5605.032		-60.97421	
86.12109	5601.628		-62.36284	
86.1752	5598.104		-63.73659	
86.22931	5594.473		-65.09473	
86.28342	5590.742		-66.43662	
86.33752	5586.918		-67.76166	
86.39163	5583.001		-69.06928	
86.44575	5578.987		-70.35916	
86.49986	5574.885		-71.63044	
86.55396	5570.703		-72.88283	
86.60807	5566.45		-74.11586	
86.66218	5562.14		-75.32906	
86.71629	5557.782		-76.52194	
86.77039	5553.376		-77.69398	
86.8245	5548.916		-78.84465	
86.87861	5544.389		-79.97335	
86.93272	5539.782		-81.07943	
86.98683	5535.081		-82.16236	
87.04094	5530.288		-83.22116	
87.09505	5525.408		-84.25527	
87.14915	5520.462		-85.26398	
87.20326	5515.464		-86.24657	
87.25737	5510.438		-87.2023	
87.31148	5505.396		-88.1305	
87.36559	5500.353		-89.03053	
87.41969	5495.313		-89.90182	
87.4738	5490.271		-90.74392	
87.52791	5485.208		-91.55655	
87.58202	5480.105		-92.33965	
87.63613	5474.941		-93.09302	
87.69024	5469.704		-93.81693	
87.74435	5464.399		-94.5117	
87.79845	5459.038		-95.17783	
87.85256	5453.622		-95.81592	
87.90667	5448.144		-96.42668	
87.96078	5442.593		-97.0109	
88.01488	5436.964		-97.56945	
88.06899	5431.249		-98.10331	
88.12311	5425.444		-98.61362	
88.17722	5419.559		-99.10141	
88.23132	5413.615		-99.56797	
88.28543	5407.629		-100.0146	
88.33954	5401.621		-100.4428	
88.39365	5395.603		-100.8538	
88.44775	5389.6		-101.249	
88.50186	5383.631		-101.6297	
88.55597	5377.704		-101.9969	
88.61008	5371.81		-102.3517	
88.66419	5365.937		-102.6952	
88.7183	5360.071		-103.0278	
88.77241	5354.208		-103.3505	
88.82652	5348.351		-103.6636	
88.88062	5342.508		-103.9677	
88.93473	5336.68		-104.2631	
88.98884	5330.865		-104.5501	
89.04295	5325.06		-104.8289	
89.09705	5319.266		-105.0996	
89.15116	5313.484		-105.3623	
89.20528	5307.723		-105.617	
89.25938	5302		-105.8638	
89.31349	5296.333		-106.1026	
89.3676	5290.728		-106.3335	
89.42171	5285.191		-106.5566	
89.47581	5279.716		-106.7719	
89.52992	5274.29		-106.9795	
89.58403	5268.889		-107.1797	
89.63814	5263.495		-107.3727	
89.69225	5258.098		-107.559	
89.74635	5252.692		-107.7388	
89.80047	5247.264		-107.9128	
89.85458	5241.804		-108.0815	
89.90868	5236.304		-108.2457	
89.96279	5230.764		-108.406	
90.0169	5225.19		-108.5633	
90.07101	5219.583		-108.7186	
90.12511	5213.946		-108.8728	
90.17922	5208.283		-109.027	
90.23333	5202.589		-109.1825	
90.28744	5196.849		-109.3404	
90.34155	5191.044		-109.502	
90.39566	5185.169		-109.6686	
90.44977	5179.229		-109.8412	
90.50388	5173.235		-110.0208	
90.55798	5167.188		-110.2083	
90.61209	5161.085		-110.4042	
90.6662	5154.919		-110.6091	
90.72031	5148.685		-110.8232	
90.77441	5142.38		-111.0468	
90.82852	5136.009		-111.28	
90.88264	5129.578		-111.5226	
90.93674	5123.1		-111.7744	
90.99085	5116.594		-112.0349	
91.04496	5110.09		-112.3036	
91.09907	5103.621		-112.5796	
91.15318	5097.213		-112.8621	
91.20728	5090.888		-113.1499	
91.26139	5084.653		-113.4417	
91.3155	5078.5		-113.7362	
91.36961	5072.41		-114.0317	
91.42372	5066.36		-114.3268	
91.47783	5060.329		-114.6196	
91.53194	5054.295		-114.9087	
91.58604	5048.239		-115.1923	
91.64015	5042.153		-115.4687	
91.69426	5036.034		-115.7366	
91.74837	5029.883		-115.9944	
91.80247	5023.71		-116.2411	
91.85658	5017.531		-116.4756	
91.91069	5011.349		-116.697	
91.96481	5005.165		-116.9047	
92.01891	4998.979		-117.0982	
92.07302	4992.788		-117.2773	
92.12713	4986.579		-117.4419	
92.18124	4980.352		-117.5921	
92.23534	4974.095		-117.7282	
92.28945	4967.79		-117.8507	
92.34356	4961.421		-117.9601	
92.39767	4954.985		-118.057	
92.45177	4948.485		-118.0723	
92.50588	4941.925		-118.0761	
92.56	4935.309		-118.0723	
92.61411	4928.652		-118.0643	
92.66821	4921.971		-118.0546	
92.72232	4915.299		-118.0445	
92.77643	4908.654		-118.0349	
92.83054	4902.046		-118.0263	
92.88464	4895.463		-118.0187	
92.93875	4888.887		-118.0122	
92.99286	4882.292		-118.0067	
93.04697	4875.666		-118.0019	
93.10108	4868.999		-117.9978	
93.15519	4862.298		-117.9941	
93.2093	4855.561		-117.9908	
93.2634	4848.791		-117.9875	
93.31751	4841.992		-117.9842	
93.37162	4835.174		-117.9807	
93.42573	4828.353		-117.9768	
93.47984	4821.55		-117.9724	
93.53394	4814.787		-117.9673	
93.58805	4808.082		-117.9613	
93.64217	4801.441		-117.9544	
93.69627	4794.864		-117.9463	
93.75038	4788.353		-117.937	
93.80449	4781.917		-117.9263	
93.8586	4775.556		-117.9141	
93.9127	4769.264		-117.9003	
93.96681	4763.023		-117.8848	
94.02092	4756.82		-117.8676	
94.07503	4750.649		-117.8486	
94.12914	4744.685		-117.8277	
94.18325	4738.716		-117.8048	
94.23736	4732.756		-117.7799	
94.29147	4726.81		-117.753	
94.34557	4720.882		-117.724	
94.39968	4714.973		-117.693	
94.45379	4709.082		-117.6598	
94.5079	4703.207		-117.6246	
94.562	4697.347		-117.5873	
94.61611	4691.5		-117.548	
94.67022	4685.666		-117.5066	
94.72433	4679.839		-117.4632	
94.77844	4674.02		-117.4178	
94.83255	4668.204		-117.3705	
94.88666	4662.391		-117.3212	
94.94077	4656.581		-117.2701	
94.99487	4650.773		-117.2172	
