T[Â°C]	350nm [counts / mm]	S.D.	First derivative	S.D. of first derivative
20.00061	4342.449		-67.10589	
20.05472	4338.672		-66.9635	
20.10883	4334.905		-66.82168	
20.16294	4331.148		-66.68047	
20.21705	4327.401		-66.53987	
20.27115	4323.664		-66.39996	
20.32526	4319.936		-66.26075	
20.37937	4316.218		-66.12227	
20.43348	4312.51		-65.98458	
20.48759	4308.812		-65.8477	
20.5417	4305.125		-65.71169	
20.5958	4301.451		-65.57655	
20.64991	4297.787		-65.44234	
20.70402	4294.135		-65.30909	
20.75813	4290.493		-65.17683	
20.81224	4286.861		-65.04558	
20.86635	4283.241		-64.91537	
20.92046	4279.651		-64.78624	
20.97456	4276.162		-64.65819	
21.02867	4272.654		-64.53123	
21.08278	4269.123		-64.4054	
21.13689	4265.58		-64.28066	
21.191	4262.037		-64.15705	
21.24511	4258.509		-64.03455	
21.29921	4255.007		-63.91315	
21.35332	4251.547		-63.79285	
21.40743	4248.131		-63.67362	
21.46154	4244.752		-63.55544	
21.51565	4241.399		-63.43829	
21.56976	4238.055		-63.32212	
21.62387	4234.7		-63.20688	
21.67797	4231.319		-63.09253	
21.73208	4227.91		-62.97899	
21.78619	4224.481		-62.8662	
21.8403	4221.038		-62.75406	
21.89441	4217.588		-62.64248	
21.94851	4214.145		-62.53133	
22.00262	4210.719		-62.4205	
22.05673	4207.331		-62.3098	
22.11084	4204.003		-62.19907	
22.16495	4200.749		-62.0881	
22.21906	4197.569		-61.97668	
22.27316	4194.456		-61.86459	
22.32727	4191.394		-61.75165	
22.38138	4188.365		-61.63775	
22.43549	4185.353		-61.52297	
22.4896	4182.333		-61.40771	
22.54371	4179.286		-61.2928	
22.59782	4176.207		-61.17944	
22.65192	4173.096		-61.11291	
22.70603	4169.962		-61.04879	
22.76014	4166.813		-60.9871	
22.81425	4163.665		-60.92785	
22.86836	4160.522		-60.87102	
22.92247	4157.384		-60.81657	
22.97658	4154.246		-60.76444	
23.03068	4151.089		-60.71451	
23.08479	4147.898		-60.66663	
23.1389	4144.663		-60.62061	
23.19301	4141.377		-60.5762	
23.24712	4138.043		-60.53315	
23.30123	4134.675		-60.49115	
23.35533	4131.282		-60.44989	
23.40944	4127.873		-60.40904	
23.46355	4124.456		-60.36829	
23.51766	4121.04		-60.32737	
23.57177	4117.625		-60.28603	
23.62588	4114.209		-60.24407	
23.67999	4110.798		-60.20135	
23.73409	4107.4		-60.15781	
23.7882	4104.019		-60.11337	
23.84231	4100.654		-60.06804	
23.89642	4097.311		-60.02187	
23.95053	4093.98		-59.97492	
24.00463	4090.652		-59.9273	
24.05874	4087.319		-59.87914	
24.11285	4083.978		-59.83058	
24.16696	4080.635		-59.78179	
24.22107	4077.298		-59.73294	
24.27518	4073.975		-59.68422	
24.32928	4070.674		-59.6358	
24.38339	4067.404		-59.58785	
24.4375	4064.168		-59.54049	
24.49161	4060.957		-59.49384	
24.54572	4057.759		-59.44799	
24.59983	4054.558		-59.40304	
24.65394	4051.338		-59.3591	
24.70804	4048.086		-59.31628	
24.76215	4044.799		-59.27467	
24.81626	4041.487		-59.23437	
24.87037	4038.169		-59.19545	
24.92448	4034.868		-59.15802	
24.97859	4031.602		-59.12219	
25.03269	4028.371		-59.08807	
25.0868	4025.17		-59.05576	
25.14091	4021.983		-59.02528	
25.19502	4018.799		-58.99668	
25.24913	4015.617		-58.96995	
25.30324	4012.443		-58.94504	
25.35735	4009.281		-58.92186	
25.41145	4006.139		-58.90025	
25.46556	4003.028		-58.88002	
25.51967	3999.958		-58.86091	
25.57378	3996.934		-58.84267	
25.62789	3993.959		-58.82505	
25.682	3991.033		-58.80785	
25.7361	3988.147		-58.79093	
25.79021	3985.288		-58.77425	
25.84432	3982.448		-58.75785	
25.89843	3979.624		-58.74189	
25.95254	3976.808		-58.72649	
26.00665	3973.986		-58.71187	
26.06075	3971.141		-58.69819	
26.11486	3968.251		-58.68563	
26.16897	3965.303		-58.67434	
26.22308	3962.286		-58.66447	
26.27719	3959.196		-58.65617	
26.3313	3956.033		-58.64962	
26.3854	3952.801		-58.64496	
26.43951	3949.512		-58.64234	
26.49362	3946.185		-58.64191	
26.54773	3942.837		-58.6438	
26.60184	3939.483		-58.64811	
26.65595	3936.135		-58.65493	
26.71006	3932.79		-58.6643	
26.76416	3929.442		-58.67617	
26.81827	3926.078		-58.69047	
26.87238	3922.688		-58.70704	
26.92649	3919.275		-58.72564	
26.9806	3915.847		-58.74604	
27.03471	3912.414		-58.76788	
27.08881	3908.99		-58.79076	
27.14292	3905.588		-58.81424	
27.19703	3902.21		-58.83783	
27.25114	3898.864		-58.861	
27.30525	3895.555		-58.88321	
27.35936	3892.288		-58.9039	
27.41347	3889.063		-58.92247	
27.46757	3885.868		-58.93833	
27.52168	3882.693		-58.95081	
27.57579	3879.531		-58.95926	
27.6299	3876.385		-58.96296	
27.68401	3873.251		-58.9613	
27.73812	3870.124		-58.95372	
27.79222	3866.993		-58.9398	
27.84633	3863.854		-58.91925	
27.90044	3860.706		-58.8919	
27.95455	3857.548		-58.85775	
28.00866	3854.393		-58.81691	
28.06277	3851.245		-58.76963	
28.11687	3848.104		-58.71631	
28.17098	3844.969		-58.65743	
28.22509	3841.838		-58.59358	
28.2792	3838.713		-58.52547	
28.33331	3835.585		-58.45383	
28.38742	3832.441		-58.37949	
28.44152	3829.28		-58.3033	
28.49563	3826.1		-58.2261	
28.54974	3822.901		-58.14878	
28.60385	3819.684		-58.07215	
28.65796	3816.462		-57.99702	
28.71207	3813.249		-57.92414	
28.76617	3810.054		-57.85417	
28.82028	3806.884		-57.78769	
28.87439	3803.737		-57.72519	
28.9285	3800.604		-57.66703	
28.98261	3797.473		-57.61351	
29.03672	3794.329		-57.56483	
29.09083	3791.168		-57.52113	
29.14493	3787.986		-57.48245	
29.19904	3784.784		-57.44879	
29.25315	3781.573		-57.42008	
29.30726	3778.375		-57.39621	
29.36137	3775.214		-57.37701	
29.41548	3772.103		-57.36227	
29.46959	3769.048		-57.35167	
29.52369	3766.042		-57.34485	
29.5778	3763.08		-57.34137	
29.63191	3760.159		-57.34072	
29.68602	3757.276		-57.34238	
29.74013	3754.421		-57.34582	
29.79424	3751.582		-57.35049	
29.84834	3748.74		-57.35586	
29.90245	3745.876		-57.36145	
29.95656	3742.981		-57.36679	
30.01067	3740.053		-57.37144	
30.06478	3737.094		-57.37501	
30.11889	3734.113		-57.37716	
30.17299	3731.119		-57.37761	
30.2271	3728.118		-57.37618	
30.28121	3725.11		-57.37275	
30.33532	3722.092		-57.36729	
30.38943	3719.058		-57.35981	
30.44354	3716.003		-57.35041	
30.49764	3712.922		-57.33925	
30.55175	3709.81		-57.32652	
30.60586	3706.666		-57.31242	
30.65997	3703.489		-57.29714	
30.71408	3700.277		-57.28085	
30.76819	3697.031		-57.26369	
30.82229	3693.76		-57.2458	
30.8764	3690.477		-57.22728	
30.93051	3687.199		-57.20823	
30.98462	3683.944		-57.18876	
31.03873	3680.713		-57.16901	
31.09284	3677.5		-57.14911	
31.14695	3674.292		-57.12918	
31.20105	3671.081		-57.10933	
31.25516	3667.863		-57.08963	
31.30927	3664.64		-57.07012	
31.36338	3661.419		-57.05077	
31.41749	3658.208		-57.0315	
31.4716	3655.01		-57.01218	
31.5257	3651.823		-56.99264	
31.57981	3648.641		-56.97268	
31.63392	3645.463		-56.95212	
31.68803	3642.291		-56.93077	
31.74214	3639.128		-56.9085	
31.79625	3635.972		-56.88517	
31.85036	3632.825		-56.86073	
31.90446	3629.69		-56.8351	
31.95857	3626.564		-56.80824	
32.01268	3623.449		-56.78006	
32.06679	3620.347		-56.75047	
32.1209	3617.262		-56.71936	
32.17501	3614.194		-56.68664	
32.22911	3611.138		-56.65221	
32.28322	3608.096		-56.616	
32.33733	3605.066		-56.57799	
32.39144	3602.051		-56.53818	
32.44555	3599.049		-56.49666	
32.49966	3596.061		-56.45356	
32.55376	3593.091		-56.40908	
32.60787	3590.143		-56.36346	
32.66198	3587.221		-56.317	
32.71609	3584.33		-56.26999	
32.7702	3581.465		-56.2228	
32.82431	3578.614		-56.17579	
32.87841	3575.763		-56.12935	
32.93252	3572.906		-56.08392	
32.98663	3570.038		-56.03996	
33.04074	3567.16		-55.99794	
33.09485	3564.277		-55.95832	
33.14896	3561.393		-55.92155	
33.20306	3558.503		-55.88803	
33.25717	3555.6		-55.85815	
33.31128	3552.674		-55.83217	
33.36539	3549.72		-55.81026	
33.4195	3546.732		-55.79246	
33.47361	3543.708		-55.77863	
33.52771	3540.648		-55.76849	
33.58183	3537.559		-55.76167	
33.63593	3534.449		-55.75771	
33.69004	3531.334		-55.75609	
33.74415	3528.221		-55.75633	
33.79826	3525.11		-55.75792	
33.85237	3522.002		-55.76037	
33.90648	3518.901		-55.76323	
33.96058	3515.81		-55.76605	
34.01469	3512.735		-55.7684	
34.0688	3509.678		-55.76984	
34.12291	3506.644		-55.76995	
34.17702	3503.626		-55.76834	
34.23112	3500.618		-55.7646	
34.28523	3497.611		-55.75837	
34.33934	3494.598		-55.74926	
34.39345	3491.578		-55.73694	
34.44756	3488.547		-55.72114	
34.50167	3485.505		-55.7016	
34.55577	3482.456		-55.67817	
34.60988	3479.406		-55.65071	
34.66399	3476.364		-55.61917	
34.7181	3473.343		-55.58353	
34.77221	3470.353		-55.5438	
34.82632	3467.394		-55.50003	
34.88042	3464.459		-55.45233	
34.93454	3461.532		-55.40085	
34.98864	3458.585		-55.34583	
35.04275	3455.595		-55.28757	
35.09686	3452.548		-55.22646	
35.15097	3449.44		-55.16298	
35.20508	3446.282		-55.09773	
35.25919	3443.09		-55.03133	
35.31329	3439.882		-54.96446	
35.3674	3436.675		-54.89772	
35.42151	3433.484		-54.8317	
35.47562	3430.314		-54.76689	
35.52973	3427.169		-54.70374	
35.58384	3424.049		-54.6426	
35.63794	3420.956		-54.58379	
35.69205	3417.886		-54.52755	
35.74616	3414.833		-54.47406	
35.80027	3411.788		-54.42342	
35.85438	3408.752		-54.37566	
35.90849	3405.734		-54.33076	
35.96259	3402.75		-54.28865	
36.0167	3399.815		-54.24923	
36.07081	3396.94		-54.21244	
36.12492	3394.125		-54.17819	
36.17903	3391.361		-54.14645	
36.23314	3388.635		-54.11721	
36.28724	3385.939		-54.09047	
36.34135	3383.272		-54.06623	
36.39546	3380.629		-54.04451	
36.44957	3377.999		-54.02532	
36.50368	3375.373		-54.00867	
36.55779	3372.74		-53.99454	
36.6119	3370.086		-53.98293	
36.666	3367.407		-53.97378	
36.72011	3364.7		-53.96698	
36.77422	3361.969		-53.96237	
36.82833	3359.221		-53.95969	
36.88244	3356.463		-53.95865	
36.93655	3353.695		-53.95892	
36.99065	3350.914		-53.96016	
37.04476	3348.117		-53.96202	
37.09887	3345.292		-53.9642	
37.15298	3342.427		-53.96646	
37.20709	3339.513		-53.96864	
37.2612	3336.551		-53.97065	
37.3153	3333.548		-53.97248	
37.36941	3330.518		-53.97412	
37.42352	3327.474		-53.97559	
37.47763	3324.429		-53.97692	
37.53174	3321.4		-53.97815	
37.58585	3318.399		-53.97929	
37.63995	3315.433		-53.98039	
37.69407	3312.499		-53.98149	
37.74817	3309.584		-53.9826	
37.80228	3306.67		-53.98371	
37.85639	3303.737		-53.9847	
37.9105	3300.775		-53.98541	
37.96461	3297.786		-53.98561	
38.01871	3294.776		-53.98503	
38.07282	3291.757		-53.98338	
38.12693	3288.737		-53.98036	
38.18104	3285.72		-53.97572	
38.23515	3282.704		-53.96924	
38.28926	3279.684		-53.9607	
38.34336	3276.659		-53.94995	
38.39747	3273.624		-53.93686	
38.45158	3270.574		-53.9214	
38.50569	3267.505		-53.90363	
38.5598	3264.41		-53.88366	
38.61391	3261.288		-53.86159	
38.66801	3258.139		-53.83754	
38.72212	3254.969		-53.81153	
38.77623	3251.792		-53.78357	
38.83034	3248.619		-53.75357	
38.88445	3245.463		-53.72145	
38.93856	3242.34		-53.6871	
38.99266	3239.268		-53.65039	
39.04677	3236.26		-53.61119	
39.10088	3233.318		-53.5694	
39.15499	3230.432		-53.52493	
39.2091	3227.593		-53.47773	
39.26321	3224.792		-53.42783	
39.31731	3222.02		-53.37527	
39.37143	3219.27		-53.32019	
39.42553	3216.538		-53.26274	
39.47964	3213.825		-53.20311	
39.53375	3211.134		-53.14153	
39.58786	3208.467		-53.07829	
39.64197	3205.821		-53.01374	
39.69608	3203.192		-52.94832	
39.75018	3200.566		-52.88247	
39.80429	3197.932		-52.81668	
39.8584	3195.286		-52.75145	
39.91251	3192.628		-52.68724	
39.96662	3189.96		-52.62447	
40.02073	3187.28		-52.56348	
40.07483	3184.585		-52.50454	
40.12894	3181.874		-52.44784	
40.18305	3179.135		-52.39353	
40.23716	3176.356		-52.34166	
40.29127	3173.536		-52.29224	
40.34538	3170.681		-52.24525	
40.39948	3167.803		-52.20066	
40.45359	3164.916		-52.15845	
40.5077	3162.03		-52.11859	
40.56181	3159.149		-52.08103	
40.61592	3156.271		-52.0457	
40.67002	3153.388		-52.01249	
40.72414	3150.5		-51.98121	
40.77824	3147.602		-51.95169	
40.83235	3144.695		-51.92369	
40.88646	3141.784		-51.89696	
40.94057	3138.876		-51.87124	
40.99468	3135.981		-51.84623	
41.04879	3133.108		-51.82158	
41.10289	3130.26		-51.79695	
41.157	3127.44		-51.77195	
41.21111	3124.652		-51.74624	
41.26522	3121.896		-51.7195	
41.31933	3119.168		-51.69146	
41.37344	3116.463		-51.66193	
41.42754	3113.764		-51.63077	
41.48165	3111.057		-51.59791	
41.53576	3108.329		-51.56338	
41.58987	3105.584		-51.52724	
41.64398	3102.831		-51.48962	
41.69809	3100.07		-51.45071	
41.75219	3097.29		-51.41074	
41.8063	3094.481		-51.37005	
41.86041	3091.633		-51.32905	
41.91452	3088.742		-51.28815	
41.96863	3085.813		-51.24778	
42.02274	3082.86		-51.20833	
42.07684	3079.904		-51.17014	
42.13095	3076.963		-51.1335	
42.18506	3074.042		-51.09864	
42.23917	3071.135		-51.0657	
42.29328	3068.237		-51.03474	
42.34739	3065.339		-51.00574	
42.4015	3062.437		-50.97857	
42.4556	3059.536		-50.95308	
42.50971	3056.652		-50.92904	
42.56382	3053.803		-50.9062	
42.61793	3050.994		-50.88429	
42.67204	3048.223		-50.86303	
42.72615	3045.486		-50.84212	
42.78025	3042.784		-50.82121	
42.83436	3040.115		-50.79997	
42.88847	3037.484		-50.77803	
42.94258	3034.89		-50.75507	
42.99669	3032.338		-50.73078	
43.0508	3029.828		-50.70488	
43.1049	3027.35		-50.67709	
43.15901	3024.89		-50.6472	
43.21312	3022.435		-50.61501	
43.26723	3019.979		-50.58039	
43.32134	3017.518		-50.5433	
43.37545	3015.051		-50.50375	
43.42955	3012.578		-50.46189	
43.48367	3010.088		-50.41799	
43.53777	3007.569		-50.3724	
43.59188	3005.012		-50.32553	
43.64599	3002.415		-50.27787	
43.7001	2999.774		-50.23	
43.7542	2997.088		-50.18255	
43.80832	2994.356		-50.13619	
43.86242	2991.579		-50.09165	
43.91653	2988.753		-50.04959	
43.97064	2985.877		-50.01067	
44.02475	2982.951		-49.97543	
44.07886	2979.985		-49.94435	
44.13297	2976.994		-49.91778	
44.18707	2973.999		-49.89599	
44.24118	2971.012		-49.87911	
44.29529	2968.043		-49.8671	
44.3494	2965.093		-49.85978	
44.40351	2962.161		-49.85689	
44.45761	2959.246		-49.85805	
44.51172	2956.357		-49.8628	
44.56583	2953.505		-49.87064	
44.61994	2950.695		-49.88096	
44.67405	2947.933		-49.89311	
44.72816	2945.216		-49.90637	
44.78226	2942.535		-49.91994	
44.83637	2939.881		-49.93303	
44.89048	2937.247		-49.94482	
44.94459	2934.634		-49.95455	
44.9987	2932.046		-49.96152	
45.05281	2929.485		-49.96511	
45.10691	2926.946		-49.96473	
45.16103	2924.423		-49.95987	
45.21513	2921.909		-49.95007	
45.26924	2919.396		-49.93493	
45.32335	2916.877		-49.91419	
45.37746	2914.352		-49.88768	
45.43157	2911.817		-49.85543	
45.48568	2909.27		-49.81759	
45.53978	2906.706		-49.77447	
45.59389	2904.119		-49.72649	
45.648	2901.509		-49.67421	
45.70211	2898.875		-49.61827	
45.75622	2896.219		-49.55941	
45.81033	2893.542		-49.49842	
45.86443	2890.846		-49.43614	
45.91854	2888.133		-49.37339	
45.97265	2885.392		-49.31102	
46.02676	2882.616		-49.24981	
46.08087	2879.805		-49.19049	
46.13498	2876.972		-49.13372	
46.18908	2874.128		-49.08002	
46.24319	2871.278		-49.02978	
46.2973	2868.428		-48.98325	
46.35141	2865.587		-48.94051	
46.40552	2862.759		-48.90157	
46.45963	2859.949		-48.86631	
46.51373	2857.165		-48.83453	
46.56784	2854.413		-48.80592	
46.62195	2851.699		-48.78014	
46.67606	2849.021		-48.75677	
46.73017	2846.377		-48.73539	
46.78428	2843.761		-48.71553	
46.83839	2841.167		-48.69672	
46.89249	2838.588		-48.67847	
46.9466	2836.015		-48.66035	
47.00071	2833.444		-48.64194	
47.05482	2830.874		-48.62291	
47.10893	2828.307		-48.60292	
47.16304	2825.749		-48.58168	
47.21714	2823.205		-48.55891	
47.27125	2820.683		-48.53437	
47.32536	2818.188		-48.50787	
47.37947	2815.723		-48.47931	
47.43358	2813.283		-48.44865	
47.48769	2810.858		-48.41599	
47.54179	2808.429		-48.38142	
47.5959	2805.984		-48.34515	
47.65001	2803.518		-48.30737	
47.70412	2801.026		-48.26837	
47.75823	2798.501		-48.22845	
47.81234	2795.937		-48.18793	
47.86644	2793.334		-48.1472	
47.92056	2790.694		-48.10662	
47.97466	2788.011		-48.06662	
48.02877	2785.291		-48.02755	
48.08288	2782.546		-47.98974	
48.13699	2779.795		-47.95349	
48.1911	2777.05		-47.91898	
48.2452	2774.318		-47.88636	
48.29931	2771.607		-47.85565	
48.35342	2768.917		-47.82681	
48.40753	2766.248		-47.79971	
48.46164	2763.601		-47.77418	
48.51575	2760.973		-47.75002	
48.56985	2758.357		-47.72694	
48.62396	2755.746		-47.70467	
48.67807	2753.136		-47.68291	
48.73218	2750.529		-47.66141	
48.78629	2747.935		-47.63988	
48.8404	2745.369		-47.61803	
48.8945	2742.839		-47.5956	
48.94861	2740.342		-47.57236	
49.00272	2737.874		-47.54813	
49.05683	2735.424		-47.52277	
49.11094	2732.986		-47.4962	
49.16505	2730.545		-47.46836	
49.21915	2728.089		-47.43921	
49.27326	2725.605		-47.40873	
49.32737	2723.086		-47.37694	
49.38148	2720.539		-47.3439	
49.43559	2717.97		-47.30969	
49.4897	2715.384		-47.27441	
49.5438	2712.777		-47.23817	
49.59792	2710.148		-47.20108	
49.65202	2707.503		-47.16327	
49.70613	2704.852		-47.12492	
49.76024	2702.203		-47.08621	
49.81435	2699.563		-47.04735	
49.86846	2696.936		-47.00858	
49.92257	2694.319		-46.97015	
49.97667	2691.704		-46.9323	
50.03078	2689.087		-46.89526	
50.08489	2686.469		-46.85923	
50.139	2683.848		-46.82434	
50.19311	2681.221		-46.79074	
50.24722	2678.594		-46.75852	
50.30132	2675.977		-46.72775	
50.35543	2673.383		-46.69846	
50.40954	2670.828		-46.67067	
50.46365	2668.323		-46.64439	
50.51776	2665.872		-46.61961	
50.57187	2663.471		-46.59633	
50.62597	2661.111		-46.57456	
50.68008	2658.78		-46.55428	
50.73419	2656.469		-46.53545	
50.7883	2654.166		-46.51805	
50.84241	2651.86		-46.50199	
50.89651	2649.536		-46.48722	
50.95063	2647.177		-46.47369	
51.00473	2644.764		-46.46134	
51.05884	2642.295		-46.45012	
51.11295	2639.777		-46.43998	
51.16706	2637.225		-46.43087	
51.22117	2634.656		-46.42276	
51.27528	2632.081		-46.41563	
51.32938	2629.512		-46.40947	
51.38349	2626.962		-46.40424	
51.4376	2624.436		-46.39987	
51.49171	2621.936		-46.39623	
51.54582	2619.453		-46.39316	
51.59993	2616.976		-46.39045	
51.65403	2614.496		-46.38787	
51.70814	2612.008		-46.38518	
51.76225	2609.509		-46.38211	
51.81636	2606.998		-46.37843	
51.87047	2604.47		-46.37387	
51.92458	2601.922		-46.36821	
51.97868	2599.354		-46.36122	
52.03279	2596.778		-46.35264	
52.0869	2594.209		-46.34222	
52.14101	2591.659		-46.32972	
52.19512	2589.136		-46.31488	
52.24923	2586.644		-46.29748	
52.30333	2584.181		-46.27731	
52.35744	2581.739		-46.25417	
52.41155	2579.306		-46.22789	
52.46566	2576.871		-46.19834	
52.51977	2574.425		-46.16542	
52.57388	2571.964		-46.12907	
52.62799	2569.481		-46.0893	
52.68209	2566.974		-46.04617	
52.7362	2564.441		-45.99979	
52.79031	2561.887		-45.95033	
52.84442	2559.32		-45.89802	
52.89853	2556.748		-45.84315	
52.95264	2554.173		-45.78604	
53.00674	2551.596		-45.72702	
53.06085	2549.014		-45.66641	
53.11496	2546.421		-45.60453	
53.16907	2543.815		-45.54167	
53.22318	2541.196		-45.47815	
53.27729	2538.568		-45.41428	
53.33139	2535.935		-45.35031	
53.3855	2533.306		-45.28645	
53.43961	2530.689		-45.22286	
53.49372	2528.095		-45.1596	
53.54783	2525.524		-45.09666	
53.60194	2522.976		-45.03398	
53.65604	2520.446		-44.97146	
53.71016	2517.931		-44.90898	
53.76426	2515.434		-44.84639	
53.81837	2512.956		-44.78355	
53.87248	2510.505		-44.72032	
53.92659	2508.086		-44.65659	
53.9807	2505.707		-44.59224	
54.03481	2503.366		-44.52719	
54.08891	2501.062		-44.46133	
54.14302	2498.789		-44.39459	
54.19713	2496.543		-44.32695	
54.25124	2494.323		-44.25841	
54.30535	2492.129		-44.18902	
54.35946	2489.959		-44.11887	
54.41356	2487.801		-44.04806	
54.46767	2485.644		-43.97673	
54.52178	2483.481		-43.90502	
54.57589	2481.311		-43.83313	
54.63	2479.129		-43.76133	
54.6841	2476.927		-43.6899	
54.73821	2474.704		-43.61922	
54.79232	2472.46		-43.54972	
54.84643	2470.2		-43.48184	
54.90054	2467.925		-43.41612	
54.95465	2465.632		-43.35305	
55.00875	2463.318		-43.29315	
55.06286	2460.981		-43.2369	
55.11697	2458.617		-43.18473	
55.17108	2456.229		-43.13705	
55.22519	2453.815		-43.09415	
55.2793	2451.375		-43.05627	
55.3334	2448.912		-43.02348	
55.38752	2446.425		-42.99577	
55.44162	2443.923		-42.97296	
55.49573	2441.423		-42.95475	
55.54984	2438.944		-42.9407	
55.60395	2436.502		-42.9303	
55.65806	2434.113		-42.92298	
55.71217	2431.775		-42.91816	
55.76627	2429.48		-42.91523	
55.82038	2427.215		-42.91359	
55.87449	2424.963		-42.91259	
55.9286	2422.712		-42.91164	
55.98271	2420.458		-42.91009	
56.03682	2418.197		-42.90733	
56.09092	2415.933		-42.90278	
56.14503	2413.666		-42.89589	
56.19914	2411.398		-42.88615	
56.25325	2409.134		-42.87312	
56.30736	2406.878		-42.85638	
56.36147	2404.629		-42.8356	
56.41557	2402.386		-42.81047	
56.46968	2400.145		-42.78078	
56.52379	2397.904		-42.74639	
56.5779	2395.659		-42.70723	
56.63201	2393.406		-42.66331	
56.68612	2391.138		-42.61474	
56.74023	2388.848		-42.5617	
56.79433	2386.533		-42.50444	
56.84844	2384.193		-42.44328	
56.90255	2381.824		-42.37858	
56.95666	2379.427		-42.31077	
57.01077	2377.002		-42.24031	
57.06488	2374.555		-42.16771	
57.11898	2372.095		-42.09355	
57.17309	2369.634		-42.01839	
57.2272	2367.179		-41.94276	
57.28131	2364.738		-41.86716	
57.33542	2362.315		-41.792	
57.38953	2359.907		-41.71766	
57.44363	2357.508		-41.6444	
57.49774	2355.111		-41.5724	
57.55185	2352.714		-41.50177	
57.60596	2350.324		-41.43254	
57.66007	2347.947		-41.36476	
57.71418	2345.597		-41.29837	
57.76828	2343.284		-41.23331	
57.82239	2341.019		-41.16951	
57.8765	2338.802		-41.10682	
57.93061	2336.63		-41.04514	
57.98472	2334.497		-40.98432	
58.03883	2332.398		-40.92424	
58.09293	2330.324		-40.86484	
58.14705	2328.265		-40.80605	
58.20115	2326.207		-40.74785	
58.25526	2324.141		-40.69021	
58.30937	2322.063		-40.63312	
58.36348	2319.973		-40.57657	
58.41759	2317.877		-40.52057	
58.47169	2315.782		-40.46517	
58.5258	2313.7		-40.41042	
58.57991	2311.632		-40.35643	
58.63402	2309.577		-40.30334	
58.68813	2307.53		-40.2513	
58.74224	2305.487		-40.20051	
58.79634	2303.446		-40.15111	
58.85045	2301.402		-40.10327	
58.90456	2299.35		-40.05711	
58.95867	2297.287		-40.01275	
59.01278	2295.21		-39.9703	
59.06689	2293.117		-39.92987	
59.12099	2291.005		-39.89157	
59.1751	2288.87		-39.85545	
59.22921	2286.709		-39.82151	
59.28332	2284.525		-39.78974	
59.33743	2282.328		-39.76008	
59.39154	2280.133		-39.73243	
59.44564	2277.951		-39.70663	
59.49975	2275.794		-39.6825	
59.55386	2273.66		-39.6598	
59.60797	2271.542		-39.63829	
59.66208	2269.432		-39.61768	
59.71619	2267.323		-39.59767	
59.77029	2265.213		-39.57789	
59.82441	2263.096		-39.55799	
59.87851	2260.968		-39.53757	
59.93262	2258.826		-39.51628	
59.98673	2256.674		-39.49376	
60.04084	2254.514		-39.4697	
60.09495	2252.349		-39.4438	
60.14906	2250.178		-39.41581	
60.20316	2247.997		-39.38548	
60.25727	2245.808		-39.35257	
60.31138	2243.609		-39.3169	
60.36549	2241.397		-39.27826	
60.4196	2239.173		-39.23652	
60.47371	2236.941		-39.19153	
60.52781	2234.71		-39.14322	
60.58192	2232.484		-39.0915	
60.63603	2230.264		-39.03631	
60.69014	2228.051		-38.97759	
60.74425	2225.845		-38.91524	
60.79836	2223.646		-38.84914	
60.85246	2221.45		-38.7792	
60.90657	2219.257		-38.70531	
60.96068	2217.063		-38.6274	
61.01479	2214.87		-38.54542	
61.0689	2212.676		-38.45928	
61.123	2210.483		-38.36889	
61.17712	2208.292		-38.27411	
61.23122	2206.104		-38.17482	
61.28533	2203.923		-38.07084	
61.33944	2201.757		-37.962	
61.39355	2199.611		-37.84818	
61.44766	2197.494		-37.72923	
61.50177	2195.413		-37.60505	
61.55587	2193.367		-37.47556	
61.60998	2191.357		-37.34069	
61.66409	2189.382		-37.20041	
61.7182	2187.443		-37.0547	
61.77231	2185.538		-36.90358	
61.82642	2183.658		-36.74709	
61.88052	2181.789		-36.58533	
61.93463	2179.923		-36.41841	
61.98874	2178.056		-36.24648	
62.04285	2176.18		-36.06973	
62.09696	2174.293		-35.88829	
62.15107	2172.392		-35.70231	
62.20517	2170.481		-35.51188	
62.25928	2168.561		-35.3171	
62.31339	2166.638		-35.11806	
62.3675	2164.715		-34.91488	
62.42161	2162.793		-34.70761	
62.47572	2160.873		-34.49632	
62.52982	2158.955		-34.28098	
62.58393	2157.042		-34.06152	
62.63804	2155.139		-33.83783	
62.69215	2153.247		-33.60965	
62.74626	2151.362		-33.37667	
62.80037	2149.485		-33.13852	
62.85448	2147.614		-32.89474	
62.90858	2145.746		-32.6449	
62.96269	2143.88		-32.38845	
63.0168	2142.021		-32.12479	
63.07091	2140.177		-31.85325	
63.12502	2138.356		-31.57306	
63.17913	2136.559		-31.28346	
63.23323	2134.788		-30.98363	
63.28734	2133.047		-30.67272	
63.34145	2131.339		-30.34991	
63.39556	2129.664		-30.01433	
63.44967	2128.019		-29.66524	
63.50378	2126.4		-29.30177	
63.55788	2124.805		-28.92307	
63.61199	2123.231		-28.5283	
63.6661	2121.677		-28.11659	
63.72021	2120.144		-27.68721	
63.77432	2118.625		-27.23942	
63.82843	2117.116		-26.77257	
63.88253	2115.614		-26.28611	
63.93665	2114.12		-25.77952	
63.99075	2112.633		-25.25247	
64.04486	2111.156		-24.70454	
64.09897	2109.688		-24.13535	
64.15308	2108.224		-23.54458	
64.20718	2106.76		-22.93188	
64.26129	2105.294		-22.29697	
64.3154	2103.829		-21.63953	
64.36951	2102.365		-20.95913	
64.42362	2100.908		-20.25557	
64.47773	2099.463		-19.52831	
64.53184	2098.035		-18.77687	
64.58595	2096.634		-18.00068	
64.64005	2095.267		-17.1991	
64.69416	2093.945		-16.37144	
64.74827	2092.682		-15.51691	
64.80238	2091.486		-14.63468	
64.85648	2090.36		-13.72388	
64.9106	2089.3		-12.78344	
64.96471	2088.298		-11.81262	
65.01881	2087.347		-10.81026	
65.07292	2086.443		-9.775303	
65.12703	2085.588		-8.706674	
65.18114	2084.784		-7.603317	
65.23524	2084.041		-6.464194	
65.28935	2083.374		-5.288275	
65.34346	2082.799		-4.074534	
65.39757	2082.323		-2.821931	
65.45168	2081.95		-1.529197	
65.50579	2081.684		-0.1955717	
65.5599	2081.528		1.180282	
65.61401	2081.482		2.599531	
65.66811	2081.537		4.06333	
65.72222	2081.68		5.572808	
65.77633	2081.896		7.129057	
65.83044	2082.169		8.733134	
65.88454	2082.486		10.38606	
65.93865	2082.835		12.08884	
65.99277	2083.217		13.84266	
66.04688	2083.643		15.64796	
66.10098	2084.127		17.50585	
66.15509	2084.684		19.41711	
66.2092	2085.326		21.38255	
66.26331	2086.062		23.40294	
66.31741	2086.896		25.47911	
66.37152	2087.831		27.61193	
66.42563	2088.868		29.80232	
66.47974	2090.007		32.05123	
66.53384	2091.248		34.35966	
66.58796	2092.587		36.72898	
66.64207	2094.023		39.15966	
66.69617	2095.561		41.65319	
66.75028	2097.207		44.21082	
66.80439	2098.972		46.83385	
66.8585	2100.872		49.52362	
66.91261	2102.927		52.2815	
66.96671	2105.149		55.1089	
67.02082	2107.548		58.00726	
67.07493	2110.128		60.97795	
67.12904	2112.891		64.02279	
67.18315	2115.837		67.14223	
67.23726	2118.971		70.33797	
67.29137	2122.293		73.61124	
67.34547	2125.795		76.96323	
67.39958	2129.465		80.3951	
67.45369	2133.294		83.90796	
67.5078	2137.28		87.50285	
67.5619	2141.423		91.18068	
67.61601	2145.727		94.94228	
67.67013	2150.203		98.78889	
67.72424	2154.862		102.72	
67.77834	2159.718		106.7364	
67.83245	2164.781		110.8386	
67.88656	2170.058		115.0265	
67.94067	2175.555		119.3001	
67.99477	2181.277		123.6592	
68.04888	2187.232		128.1035	
68.10299	2193.428		132.6322	
68.1571	2199.875		137.2448	
68.21121	2206.582		141.9411	
68.26532	2213.547		146.7188	
68.31943	2220.768		151.5775	
68.37354	2228.249		156.5162	
68.42764	2235.994		161.5335	
68.48175	2244.009		166.6282	
68.53586	2252.307		171.7988	
68.58997	2260.899		177.0439	
68.64407	2269.801		182.3618	
68.69818	2279.028		187.7509	
68.75229	2288.596		193.2094	
68.8064	2298.52		198.7366	
68.86051	2308.806		204.3289	
68.91462	2319.46		209.9853	
68.96873	2330.478		215.704	
69.02283	2341.847		221.483	
69.07694	2353.556		227.3203	
69.13105	2365.595		233.2135	
69.18516	2377.961		239.1603	
69.23927	2390.656		245.1582	
69.29337	2403.679		251.2043	
69.34749	2417.038		257.2965	
69.4016	2430.736		263.4296	
69.4557	2444.793		269.6008	
69.50981	2459.232		275.806	
69.56392	2474.074		282.0404	
69.61803	2489.334		288.2991	
69.67213	2505.022		294.5764	
69.72624	2521.137		300.8663	
69.78035	2537.672		307.162	
69.83446	2554.616		313.4565	
69.88857	2571.96		319.7429	
69.94268	2589.694		326.011	
69.99679	2607.809		332.2529	
70.0509	2626.295		338.4593	
70.105	2645.142		344.6201	
70.15911	2664.346		350.7252	
70.21322	2683.907		356.7634	
70.26733	2703.827		362.7235	
70.32143	2724.111		368.5938	
70.37554	2744.77		374.362	
70.42966	2765.815		380.0164	
70.48376	2787.248		385.5426	
70.53787	2809.071		390.9282	
70.59198	2831.271		396.1601	
70.64609	2853.833		401.2248	
70.7002	2876.74		406.109	
70.7543	2899.986		410.7997	
70.80841	2923.57		415.2837	
70.86252	2947.494		419.5483	
70.91663	2971.764		423.5813	
70.97074	2996.384		427.3714	
71.02485	3021.351		430.9063	
71.07896	3046.672		434.176	
71.13306	3072.349		437.1706	
71.18717	3098.387		439.881	
71.24128	3124.792		442.2988	
71.29539	3151.566		444.4166	
71.34949	3178.703		446.2276	
71.4036	3206.193		447.726	
71.45771	3234.024		448.9067	
71.51182	3262.182		449.7657	
71.56593	3290.654		450.2998	
71.62004	3319.404		450.5068	
71.67415	3348.405		450.3853	
71.72826	3377.618		449.9352	
71.78236	3407.003		449.1569	
71.83647	3436.516		448.0519	
71.89058	3466.111		446.6227	
71.94469	3495.739		444.8723	
71.99879	3525.347		442.8049	
72.0529	3554.875		440.425	
72.10702	3584.274		437.7377	
72.16113	3613.493		434.7496	
72.21523	3642.493		431.4671	
72.26934	3671.23		427.8973	
72.32345	3699.655		424.0479	
72.37756	3727.719		419.9268	
72.43166	3755.372		415.5426	
72.48577	3782.573		410.9042	
72.53988	3809.283		406.0208	
72.59399	3835.459		400.9019	
72.6481	3861.062		395.5565	
72.70221	3886.042		389.9963	
72.75632	3910.359		384.2309	
72.81042	3933.97		378.2708	
72.86453	3956.832		372.1271	
72.91864	3978.912		365.8108	
72.97275	4000.189		359.3334	
73.02686	4020.658		352.7067	
73.08096	4040.322		345.9426	
73.13507	4059.189		339.0533	
73.18919	4077.271		332.0504	
73.24329	4094.578		324.9484	
73.2974	4111.127		317.7593	
73.35151	4126.938		310.4963	
73.40562	4142.034		303.1727	
73.45972	4156.438		295.8021	
73.51383	4170.185		288.3981	
73.56794	4183.297		280.9747	
73.62205	4195.796		273.5457	
73.67616	4207.702		266.1252	
73.73027	4219.03		258.7262	
73.78438	4229.797		251.3646	
73.83849	4240.021		244.0532	
73.89259	4249.734		236.8056	
73.9467	4258.969		229.6349	
74.00081	4267.761		222.5539	
74.05492	4276.146		215.5747	
74.10902	4284.167		208.7091	
74.16313	4291.871		201.9678	
74.21724	4299.311		195.3614	
74.27135	4306.534		188.8991	
74.32546	4313.578		182.5889	
74.37957	4320.462		176.4405	
74.43368	4327.188		170.4598	
74.48779	4333.746		164.653	
74.54189	4340.125		159.0251	
74.596	4346.312		153.5801	
74.65011	4352.297		148.321	
74.70422	4358.078		143.25	
74.75832	4363.664		138.3678	
74.81243	4369.074		133.6742	
74.86655	4374.328		129.1677	
74.92065	4379.44		124.8471	
74.97476	4384.429		120.7087	
75.02887	4389.317		116.7484	
75.08298	4394.122		112.9611	
75.13708	4398.847		109.3409	
75.19119	4403.495		105.8813	
75.2453	4408.062		102.5752	
75.29941	4412.538		99.41517	
75.35352	4416.91		96.39327	
75.40763	4421.166		93.50114	
75.46174	4425.294		90.73147	
75.51585	4429.279		88.07574	
75.56995	4433.109		85.52589	
75.62406	4436.781		83.07411	
75.67817	4440.31		80.71282	
75.73228	4443.724		78.4348	
75.78638	4447.053		76.23318	
75.84049	4450.334		74.10155	
75.8946	4453.599		72.03385	
75.94872	4456.871		70.02422	
76.00282	4460.152		68.06812	
76.05693	4463.441		66.16059	
76.11104	4466.727		64.29753	
76.16515	4469.996		62.47537	
76.21925	4473.238		60.69107	
76.27336	4476.455		58.94218	
76.32747	4479.651		57.22679	
76.38158	4482.829		55.54354	
76.43568	4485.979		53.89159	
76.4898	4489.104		52.27032	
76.54391	4492.205		50.68021	
76.59801	4495.286		49.12138	
76.65212	4498.34		47.59443	
76.70623	4501.358		46.10017	
76.76034	4504.329		44.63953	
76.81445	4507.249		43.21359	
76.86855	4510.11		41.82347	
76.92266	4512.905		40.47035	
76.97677	4515.623		39.15533	
77.03088	4518.249		37.87945	
77.08499	4520.767		36.64342	
77.1391	4523.157		35.44829	
77.19321	4525.399		34.29441	
77.24731	4527.473		33.18214	
77.30142	4529.36		32.11165	
77.35553	4531.05		31.08299	
77.40964	4532.544		30.09603	
77.46375	4533.852		29.15048	
77.51785	4534.976		28.24594	
77.57196	4535.915		27.38192	
77.62608	4536.659		26.55775	
77.68018	4537.206		25.77313	
77.73429	4537.564		25.0274	
77.7884	4537.753		24.32006	
77.84251	4537.803		23.65059	
77.89661	4537.746		23.01848	
77.95072	4537.612		22.42325	
78.00483	4537.423		21.86444	
78.05894	4537.189		21.34167	
78.11304	4536.922		20.85473	
78.16716	4536.635		20.40342	
78.22127	4536.344		19.98789	
78.27538	4536.063		19.60822	
78.32948	4535.807		19.26469	
78.38359	4535.584		18.95774	
78.4377	4535.395		18.68786	
78.49181	4535.241		18.45566	
78.54591	4535.133		18.26177	
78.60002	4535.09		18.10683	
78.65413	4535.135		17.99149	
78.70824	4535.285		17.9163	
78.76235	4535.55		17.88179	
78.81646	4535.939		17.88838	
78.87057	4536.471		17.93641	
78.92467	4537.15		18.02614	
78.97878	4537.974		18.15772	
79.03289	4538.932		18.33116	
79.087	4540.003		18.54628	
79.14111	4541.156		18.80265	
79.19521	4542.365		19.09964	
79.24932	4543.609		19.43637	
79.30344	4544.88		19.81176	
79.35754	4546.177		20.22428	
79.41165	4547.516		20.67227	
79.46576	4548.915		21.15372	
79.51987	4550.39		21.66632	
79.57397	4551.949		22.20753	
79.62808	4553.585		22.77459	
79.68219	4555.281		23.36454	
79.7363	4557.024		23.97428	
79.79041	4558.803		24.60054	
79.84452	4560.611		25.24005	
79.89863	4562.45		25.88916	
79.95274	4564.31		26.54446	
80.00684	4566.173		27.20249	
80.06095	4568.017		27.85987	
80.11506	4569.835		28.51334	
80.16917	4571.625		29.15975	
80.22327	4573.391		29.79611	
80.27738	4575.139		30.41955	
80.33149	4576.877		31.02738	
80.3856	4578.611		31.61713	
80.43971	4580.34		32.18635	
80.49382	4582.056		32.73307	
80.54793	4583.759		33.25554	
80.60204	4585.452		33.75228	
80.65614	4587.145		34.22205	
80.71025	4588.838		34.66389	
80.76436	4590.535		35.07705	
80.81847	4592.244		35.46108	
80.87257	4593.978		35.81578	
80.92669	4595.751		36.14125	
80.9808	4597.583		36.43765	
81.0349	4599.491		36.70549	
81.08901	4601.487		36.94536	
81.14312	4603.577		37.15801	
81.19723	4605.748		37.34426	
81.25134	4607.979		37.505	
81.30544	4610.252		37.64116	
81.35955	4612.559		37.75365	
81.41366	4614.896		37.84339	
81.46777	4617.266		37.91123	
81.52188	4619.671		37.95798	
81.57599	4622.109		37.9844	
81.6301	4624.573		37.99118	
81.6842	4627.059		37.9789	
81.73831	4629.566		37.94805	
81.79242	4632.1		37.89895	
81.84653	4634.665		37.83172	
81.90063	4637.257		37.74627	
81.95474	4639.873		37.64233	
82.00885	4642.498		37.51944	
82.06297	4645.114		37.37701	
82.11707	4647.699		37.21436	
82.17118	4650.239		37.03059	
82.22529	4652.729		36.82471	
82.2794	4655.168		36.59554	
82.3335	4657.558		36.34178	
82.38761	4659.895		36.06203	
82.44172	4662.168		35.75488	
82.49583	4664.375		35.41887	
82.54993	4666.518		35.05264	
82.60405	4668.605		34.65479	
82.65816	4670.633		34.22419	
82.71227	4672.598		33.75963	
82.76637	4674.5		33.2601	
82.82048	4676.336		32.72475	
82.87459	4678.114		32.15295	
82.9287	4679.842		31.54429	
82.9828	4681.531		30.89862	
83.03691	4683.182		30.21601	
83.09102	4684.802		29.49674	
83.14513	4686.393		28.74112	
83.19924	4687.956		27.94992	
83.25335	4689.49		27.12371	
83.30746	4691.001		26.26332	
83.36156	4692.493		25.36967	
83.41567	4693.975		24.44377	
83.46978	4695.452		23.48673	
83.52389	4696.926		22.49972	
83.578	4698.395		21.48396	
83.6321	4699.855		20.44071	
83.68622	4701.293		19.37111	
83.74033	4702.701		18.27667	
83.79443	4704.069		17.15843	
83.84854	4705.393		16.01748	
83.90265	4706.669		14.85478	
83.95676	4707.897		13.67126	
84.01086	4709.074		12.46773	
84.06497	4710.199		11.24498	
84.11908	4711.262		10.00373	
84.17319	4712.252		8.744632	
84.2273	4713.163		7.468027	
84.28141	4713.988		6.174682	
84.33552	4714.711		4.864699	
84.38963	4715.313		3.538267	
84.44373	4715.78		2.19553	
84.49784	4716.113		0.8366358	
84.55195	4716.319		-0.5382662	
84.60606	4716.405		-1.928998	
84.66016	4716.379		-3.335346	
84.71427	4716.244		-4.757041	
84.76838	4715.991		-6.19375	
84.82249	4715.612		-7.645236	
84.8766	4715.101		-9.110512	
84.93071	4714.469		-10.58905	
84.98482	4713.734		-12.07998	
85.03893	4712.914		-13.58226	
85.09303	4712.013		-15.09474	
85.14714	4711.031		-16.6161	
85.20125	4709.963		-18.14492	
85.25536	4708.796		-19.67961	
85.30946	4707.526		-21.2185	
85.36358	4706.153		-22.76006	
85.41769	4704.684		-24.30208	
85.47179	4703.128		-25.84297	
85.5259	4701.497		-27.381	
85.58001	4699.803		-28.91448	
85.63412	4698.053		-30.44177	
85.68822	4696.25		-31.96133	
85.74233	4694.398		-33.47167	
85.79644	4692.497		-34.97138	
85.85055	4690.547		-36.45917	
85.90466	4688.549		-37.93399	
85.95877	4686.495		-39.39423	
86.01288	4684.369		-40.83894	
86.06699	4682.149		-42.26696	
86.12109	4679.816		-43.67719	
86.1752	4677.357		-45.06861	
86.22931	4674.768		-46.44028	
86.28342	4672.041		-47.79131	
86.33752	4669.175		-49.12094	
86.39163	4666.164		-50.42845	
86.44575	4663.003		-51.71344	
86.49986	4659.702		-52.97503	
86.55396	4656.278		-54.21297	
86.60807	4652.757		-55.4269	
86.66218	4649.165		-56.6165	
86.71629	4645.516		-57.7815	
86.77039	4641.817		-58.92165	
86.8245	4638.064		-60.03674	
86.87861	4634.253		-61.12655	
86.93272	4630.378		-62.19081	
86.98683	4626.445		-63.2294	
87.04094	4622.469		-64.24168	
87.09505	4618.465		-65.22742	
87.14915	4614.455		-66.18616	
87.20326	4610.452		-67.11739	
87.25737	4606.468		-68.02059	
87.31148	4602.496		-68.89518	
87.36559	4598.53		-69.74061	
87.41969	4594.56		-70.55634	
87.4738	4590.578		-71.34196	
87.52791	4586.578		-72.0972	
87.58202	4582.559		-72.82201	
87.63613	4578.52		-73.5162	
87.69024	4574.456		-74.18004	
87.74435	4570.352		-74.81386	
87.79845	4566.193		-75.41814	
87.85256	4561.967		-75.99348	
87.90667	4557.673		-76.5406	
87.96078	4553.307		-77.06034	
88.01488	4548.87		-77.55365	
88.06899	4544.358		-78.02155	
88.12311	4539.775		-78.46524	
88.17722	4535.132		-78.88576	
88.23132	4530.44		-79.28444	
88.28543	4525.706		-79.66257	
88.33954	4520.942		-80.02152	
88.39365	4516.158		-80.36273	
88.44775	4511.367		-80.68766	
88.50186	4506.581		-80.99779	
88.55597	4501.818		-81.29453	
88.61008	4497.088		-81.57921	
88.66419	4492.396		-81.85313	
88.7183	4487.743		-82.11736	
88.77241	4483.127		-82.37299	
88.82652	4478.546		-82.62096	
88.88062	4473.995		-82.8621	
88.93473	4469.453		-83.09712	
88.98884	4464.9		-83.32664	
89.04295	4460.326		-83.55112	
89.09705	4455.728		-83.77096	
89.15116	4451.107		-83.9864	
89.20528	4446.475		-84.19762	
89.25938	4441.847		-84.40457	
89.31349	4437.239		-84.60722	
89.3676	4432.67		-84.8054	
89.42171	4428.144		-84.99892	
89.47581	4423.661		-85.18768	
89.52992	4419.215		-85.37159	
89.58403	4414.803		-85.5507	
89.63814	4410.42		-85.72514	
89.69225	4406.061		-85.89508	
89.74635	4401.711		-86.06082	
89.80047	4397.356		-86.22275	
89.85458	4392.984		-86.38126	
89.90868	4388.594		-86.53689	
89.96279	4384.184		-86.69021	
90.0169	4379.751		-86.84181	
90.07101	4375.283		-86.99236	
90.12511	4370.774		-87.14258	
90.17922	4366.225		-87.29322	
90.23333	4361.634		-87.44511	
90.28744	4357.002		-87.5991	
90.34155	4352.329		-87.75604	
90.39566	4347.618		-87.91669	
90.44977	4342.872		-88.08179	
90.50388	4338.099		-88.25196	
90.55798	4333.307		-88.42764	
90.61209	4328.498		-88.60914	
90.6662	4323.66		-88.79657	
90.72031	4318.772		-88.98995	
90.77441	4313.821		-89.18916	
90.82852	4308.806		-89.39398	
90.88264	4303.728		-89.60414	
90.93674	4298.588		-89.81921	
90.99085	4293.397		-90.03876	
91.04496	4288.178		-90.26227	
91.09907	4282.96		-90.4891	
91.15318	4277.777		-90.71853	
91.20728	4272.648		-90.94972	
91.26139	4267.586		-91.18171	
91.3155	4262.593		-91.41345	
91.36961	4257.658		-91.64384	
91.42372	4252.763		-91.8718	
91.47783	4247.892		-92.09615	
91.53194	4243.031		-92.31584	
91.58604	4238.171		-92.52979	
91.64015	4233.311		-92.73698	
91.69426	4228.438		-92.93648	
91.74837	4223.543		-93.12744	
91.80247	4218.615		-93.30913	
91.85658	4213.657		-93.48092	
91.91069	4208.67		-93.6423	
91.96481	4203.661		-93.79293	
92.01891	4198.629		-93.93252	
92.07302	4193.574		-94.06102	
92.12713	4188.489		-94.1785	
92.18124	4183.375		-94.28518	
92.23534	4178.229		-94.38134	
92.28945	4173.049		-94.46737	
92.34356	4167.827		-94.54372	
92.39767	4162.554		-94.61085	
92.45177	4157.224		-94.60522	
92.50588	4151.847		-94.59319	
92.56	4146.436		-94.57718	
92.61411	4141.012		-94.55923	
92.66821	4135.587		-94.5407	
92.72232	4130.18		-94.52233	
92.77643	4124.796		-94.5045	
92.83054	4119.443		-94.4873	
92.88464	4114.116		-94.4707	
92.93875	4108.813		-94.45458	
92.99286	4103.518		-94.43877	
93.04697	4098.224		-94.42312	
93.10108	4092.935		-94.40746	
93.15519	4087.66		-94.39164	
93.2093	4082.402		-94.37553	
93.2634	4077.164		-94.359	
93.31751	4071.947		-94.34194	
93.37162	4066.757		-94.32424	
93.42573	4061.587		-94.30581	
93.47984	4056.424		-94.28654	
93.53394	4051.259		-94.26637	
93.58805	4046.096		-94.24517	
93.64217	4040.94		-94.2229	
93.69627	4035.792		-94.19947	
93.75038	4030.655		-94.17483	
93.80449	4025.54		-94.14891	
93.8586	4020.454		-94.12166	
93.9127	4015.396		-94.09306	
93.96681	4010.355		-94.06304	
94.02092	4005.324		-94.03161	
94.07503	4000.299		-93.99872	
94.12914	3995.362		-93.96436	
94.18325	3990.447		-93.92852	
94.23736	3985.542		-93.89118	
94.29147	3980.643		-93.85236	
94.34557	3975.749		-93.81203	
94.39968	3970.861		-93.77023	
94.45379	3965.98		-93.72695	
94.5079	3961.106		-93.68222	
94.562	3956.241		-93.63605	
94.61611	3951.385		-93.58848	
94.67022	3946.537		-93.53952	
94.72433	3941.697		-93.4892	
94.77844	3936.865		-93.43755	
94.83255	3932.041		-93.38463	
94.88666	3927.224		-93.33045	
94.94077	3922.414		-93.27506	
94.99487	3917.612		-93.21851	
