T[Â°C]	330nm [counts / mm]	S.D.	First derivative	S.D. of first derivative
20.0012	3536.35		-49.0532	
20.05515	3533.677		-49.04911	
20.1091	3531.005		-49.0445	
20.16305	3528.335		-49.03936	
20.21699	3525.669		-49.03368	
20.27094	3523.007		-49.02747	
20.32489	3520.351		-49.02072	
20.37884	3517.7		-49.01344	
20.43278	3515.054		-49.00563	
20.48673	3512.41		-48.99731	
20.54068	3509.767		-48.98848	
20.59463	3507.123		-48.97917	
20.64857	3504.476		-48.9694	
20.70252	3501.822		-48.95918	
20.75647	3499.158		-48.94855	
20.81042	3496.476		-48.93753	
20.86436	3493.768		-48.92616	
20.91831	3491.023		-48.91448	
20.97226	3488.249		-48.90253	
21.02621	3485.613		-48.89035	
21.08015	3483.029		-48.87799	
21.1341	3480.483		-48.86552	
21.18805	3477.951		-48.85297	
21.24199	3475.406		-48.8404	
21.29594	3472.833		-48.82785	
21.34989	3470.219		-48.81539	
21.40384	3467.563		-48.80306	
21.45778	3464.869		-48.79092	
21.51173	3462.137		-48.77901	
21.56568	3459.373		-48.76741	
21.61963	3456.58		-48.75618	
21.67357	3453.764		-48.74535	
21.72752	3450.934		-48.735	
21.78147	3448.1		-48.72518	
21.83542	3445.267		-48.71593	
21.88936	3442.438		-48.7073	
21.94331	3439.614		-48.69931	
21.99726	3436.802		-48.692	
22.05121	3434.012		-48.68535	
22.10515	3431.241		-48.67937	
22.1591	3428.486		-48.67398	
22.21305	3425.742		-48.66912	
22.267	3423.003		-48.66459	
22.32094	3420.27		-48.66013	
22.37489	3417.552		-48.65533	
22.42884	3414.863		-48.64956	
22.48279	3412.221		-48.64197	
22.53673	3409.64		-48.63144	
22.59068	3407.131		-48.61681	
22.64463	3404.694		-48.60249	
22.69858	3402.318		-48.58596	
22.75252	3399.98		-48.56706	
22.80647	3397.659		-48.54571	
22.86042	3395.331		-48.52184	
22.91437	3392.981		-48.49544	
22.96831	3390.604		-48.46656	
23.02226	3388.204		-48.4353	
23.07621	3385.787		-48.40184	
23.13016	3383.354		-48.36643	
23.1841	3380.904		-48.32936	
23.23805	3378.427		-48.29098	
23.292	3375.924		-48.25166	
23.34595	3373.397		-48.21183	
23.39989	3370.845		-48.17196	
23.45384	3368.264		-48.1325	
23.50779	3365.654		-48.09389	
23.56174	3363.014		-48.05652	
23.61568	3360.341		-48.02071	
23.66963	3357.636		-47.98667	
23.72358	3354.906		-47.95461	
23.77752	3352.158		-47.9247	
23.83147	3349.402		-47.89711	
23.88542	3346.638		-47.87203	
23.93937	3343.87		-47.84959	
23.99331	3341.108		-47.82991	
24.04726	3338.361		-47.81305	
24.10121	3335.64		-47.79902	
24.15516	3332.955		-47.78773	
24.2091	3330.318		-47.77904	
24.26305	3327.727		-47.77269	
24.317	3325.171		-47.76836	
24.37095	3322.636		-47.76565	
24.42489	3320.108		-47.76411	
24.47884	3317.573		-47.76328	
24.53279	3315.021		-47.76272	
24.58674	3312.443		-47.76198	
24.64068	3309.838		-47.76061	
24.69463	3307.215		-47.75821	
24.74858	3304.586		-47.75438	
24.80253	3301.969		-47.74878	
24.85647	3299.377		-47.74116	
24.91042	3296.816		-47.73131	
24.96437	3294.287		-47.71907	
25.01832	3291.786		-47.70435	
25.07226	3289.301		-47.68706	
25.12621	3286.821		-47.66721	
25.18016	3284.328		-47.64483	
25.23411	3281.81		-47.62004	
25.28805	3279.261		-47.59303	
25.342	3276.682		-47.56405	
25.39595	3274.079		-47.53342	
25.4499	3271.467		-47.50148	
25.50384	3268.864		-47.4686	
25.55779	3266.283		-47.43514	
25.61174	3263.727		-47.40145	
25.66569	3261.189		-47.36784	
25.71963	3258.672		-47.33463	
25.77358	3256.175		-47.30207	
25.82753	3253.692		-47.27044	
25.88148	3251.215		-47.23999	
25.93542	3248.73		-47.21091	
25.98937	3246.225		-47.18333	
26.04332	3243.694		-47.15726	
26.09727	3241.138		-47.13271	
26.15121	3238.563		-47.10955	
26.20516	3235.976		-47.08764	
26.25911	3233.378		-47.06675	
26.31306	3230.774		-47.04663	
26.367	3228.167		-47.02698	
26.42095	3225.564		-47.00752	
26.4749	3222.974		-46.98797	
26.52884	3220.404		-46.96809	
26.58279	3217.859		-46.94765	
26.63674	3215.334		-46.92646	
26.69069	3212.825		-46.90434	
26.74463	3210.322		-46.88114	
26.79858	3207.823		-46.85672	
26.85253	3205.327		-46.83101	
26.90648	3202.839		-46.80394	
26.96042	3200.36		-46.77549	
27.01437	3197.888		-46.74566	
27.06832	3195.422		-46.71449	
27.12227	3192.959		-46.68201	
27.17621	3190.504		-46.64837	
27.23016	3188.055		-46.61371	
27.28411	3185.608		-46.57827	
27.33806	3183.155		-46.54227	
27.392	3180.684		-46.50594	
27.44595	3178.183		-46.46949	
27.4999	3175.65		-46.43309	
27.55385	3173.088		-46.39692	
27.60779	3170.504		-46.36118	
27.66174	3167.911		-46.32604	
27.71569	3165.314		-46.2917	
27.76964	3162.718		-46.25831	
27.82358	3160.124		-46.22599	
27.87753	3157.531		-46.19483	
27.93148	3154.937		-46.16488	
27.98543	3152.343		-46.13614	
28.03937	3149.753		-46.10855	
28.09332	3147.172		-46.08203	
28.14727	3144.603		-46.05642	
28.20122	3142.044		-46.03154	
28.25516	3139.498		-46.0072	
28.30911	3136.969		-45.98317	
28.36306	3134.459		-45.95924	
28.41701	3131.969		-45.93523	
28.47095	3129.499		-45.91101	
28.5249	3127.052		-45.88648	
28.57885	3124.63		-45.86164	
28.6328	3122.235		-45.83652	
28.68674	3119.861		-45.81123	
28.74069	3117.504		-45.78588	
28.79464	3115.167		-45.76058	
28.84859	3112.858		-45.73545	
28.90253	3110.576		-45.71055	
28.95648	3108.31		-45.68591	
29.01043	3106.043		-45.66154	
29.06437	3103.758		-45.63742	
29.11832	3101.438		-45.61352	
29.17227	3099.074		-45.58986	
29.22622	3096.663		-45.56648	
29.28016	3094.207		-45.54346	
29.33411	3091.717		-45.52088	
29.38806	3089.199		-45.49883	
29.44201	3086.664		-45.47737	
29.49595	3084.123		-45.45653	
29.5499	3081.587		-45.43629	
29.60385	3079.071		-45.41661	
29.6578	3076.583		-45.39748	
29.71174	3074.119		-45.37885	
29.76569	3071.662		-45.36068	
29.81964	3069.196		-45.34285	
29.87359	3066.711		-45.32521	
29.92753	3064.209		-45.30758	
29.98148	3061.692		-45.28974	
30.03543	3059.169		-45.27149	
30.08938	3056.647		-45.25263	
30.14332	3054.129		-45.23295	
30.19727	3051.611		-45.2122	
30.25122	3049.096		-45.19014	
30.30517	3046.597		-45.16648	
30.35911	3044.127		-45.14097	
30.41306	3041.698		-45.11344	
30.46701	3039.318		-45.08379	
30.52096	3036.982		-45.052	
30.5749	3034.685		-45.01816	
30.62885	3032.409		-44.98239	
30.6828	3030.135		-44.94485	
30.73675	3027.844		-44.90572	
30.79069	3025.53		-44.8652	
30.84464	3023.186		-44.8235	
30.89859	3020.802		-44.78082	
30.95254	3018.37		-44.73736	
31.00648	3015.886		-44.69328	
31.06043	3013.35		-44.64876	
31.11438	3010.773		-44.60398	
31.16833	3008.175		-44.5591	
31.22227	3005.573		-44.51429	
31.27622	3002.979		-44.46968	
31.33017	3000.4		-44.42542	
31.38412	2997.839		-44.38159	
31.43806	2995.299		-44.33823	
31.49201	2992.786		-44.29531	
31.54596	2990.309		-44.25274	
31.59991	2987.875		-44.21037	
31.65385	2985.48		-44.16806	
31.7078	2983.11		-44.12563	
31.76175	2980.743		-44.08289	
31.81569	2978.367		-44.03967	
31.86964	2975.977		-43.99577	
31.92359	2973.575		-43.95102	
31.97754	2971.17		-43.90525	
32.03148	2968.785		-43.8583	
32.08543	2966.442		-43.81005	
32.13938	2964.155		-43.76038	
32.19333	2961.926		-43.70921	
32.24727	2959.744		-43.65639	
32.30122	2957.596		-43.60185	
32.35517	2955.471		-43.54555	
32.40911	2953.365		-43.48755	
32.46306	2951.265		-43.428	
32.51701	2949.159		-43.36713	
32.57096	2947.029		-43.30524	
32.6249	2944.86		-43.24267	
32.67885	2942.635		-43.17977	
32.7328	2940.354		-43.1169	
32.78675	2938.029		-43.05446	
32.84069	2935.674		-42.99289	
32.89464	2933.304		-42.93267	
32.94859	2930.929		-42.87428	
33.00254	2928.548		-42.81826	
33.05648	2926.157		-42.76511	
33.11043	2923.752		-42.71531	
33.16438	2921.334		-42.66931	
33.21833	2918.908		-42.6275	
33.27227	2916.478		-42.59021	
33.32622	2914.044		-42.55769	
33.38017	2911.602		-42.53014	
33.43412	2909.149		-42.50761	
33.48806	2906.69		-42.49006	
33.54201	2904.238		-42.47735	
33.59596	2901.804		-42.46924	
33.64991	2899.402		-42.46539	
33.70385	2897.038		-42.46542	
33.7578	2894.715		-42.46893	
33.81175	2892.429		-42.47553	
33.8657	2890.177		-42.48482	
33.91964	2887.953		-42.49643	
33.97359	2885.748		-42.51002	
34.02754	2883.561		-42.52526	
34.08149	2881.395		-42.54181	
34.13543	2879.255		-42.55932	
34.18938	2877.135		-42.5774	
34.24333	2875.033		-42.59563	
34.29728	2872.936		-42.61359	
34.35122	2870.833		-42.63089	
34.40517	2868.718		-42.64721	
34.45912	2866.591		-42.66228	
34.51307	2864.456		-42.67587	
34.56701	2862.318		-42.68781	
34.62096	2860.174		-42.69797	
34.67491	2858.012		-42.70625	
34.72886	2855.827		-42.71255	
34.7828	2853.614		-42.71686	
34.83675	2851.366		-42.71922	
34.8907	2849.078		-42.71979	
34.94464	2846.751		-42.71882	
34.99859	2844.386		-42.71662	
35.05254	2841.985		-42.71356	
35.10649	2839.548		-42.71	
35.16043	2837.081		-42.70633	
35.21438	2834.596		-42.70289	
35.26833	2832.111		-42.70003	
35.32228	2829.641		-42.69807	
35.37622	2827.199		-42.69726	
35.43017	2824.795		-42.6978	
35.48412	2822.427		-42.6998	
35.53807	2820.089		-42.70325	
35.59201	2817.769		-42.70804	
35.64596	2815.459		-42.71397	
35.69991	2813.149		-42.72075	
35.75386	2810.835		-42.72804	
35.8078	2808.517		-42.73547	
35.86175	2806.189		-42.74262	
35.9157	2803.848		-42.74904	
35.96965	2801.487		-42.75426	
36.02359	2799.106		-42.75784	
36.07754	2796.711		-42.75935	
36.13149	2794.31		-42.7584	
36.18544	2791.924		-42.75462	
36.23938	2789.569		-42.74764	
36.29333	2787.248		-42.73716	
36.34728	2784.949		-42.7229	
36.40123	2782.657		-42.70459	
36.45517	2780.355		-42.68204	
36.50912	2778.032		-42.65507	
36.56307	2775.68		-42.62353	
36.61702	2773.294		-42.58732	
36.67096	2770.881		-42.54633	
36.72491	2768.457		-42.50049	
36.77886	2766.042		-42.44974	
36.83281	2763.656		-42.39409	
36.88675	2761.314		-42.33363	
36.9407	2759.024		-42.26852	
36.99465	2756.788		-42.19904	
37.0486	2754.603		-42.12553	
37.10254	2752.459		-42.04844	
37.15649	2750.344		-41.96826	
37.21044	2748.246		-41.88556	
37.26439	2746.151		-41.80093	
37.31833	2744.048		-41.71501	
37.37228	2741.926		-41.62841	
37.42623	2739.773		-41.54175	
37.48018	2737.58		-41.45557	
37.53412	2735.341		-41.37043	
37.58807	2733.059		-41.28679	
37.64202	2730.744		-41.20503	
37.69596	2728.409		-41.12553	
37.74991	2726.065		-41.04858	
37.80386	2723.726		-40.97441	
37.85781	2721.398		-40.90321	
37.91175	2719.082		-40.83509	
37.9657	2716.773		-40.7701	
38.01965	2714.462		-40.70822	
38.0736	2712.139		-40.64939	
38.12754	2709.807		-40.59351	
38.18149	2707.476		-40.54051	
38.23544	2705.157		-40.49031	
38.28939	2702.861		-40.44289	
38.34333	2700.594		-40.39823	
38.39728	2698.369		-40.35632	
38.45123	2696.198		-40.31714	
38.50518	2694.092		-40.28069	
38.55912	2692.052		-40.24697	
38.61307	2690.069		-40.21596	
38.66702	2688.125		-40.18764	
38.72097	2686.196		-40.16196	
38.77491	2684.27		-40.13881	
38.82886	2682.338		-40.11807	
38.88281	2680.394		-40.09956	
38.93676	2678.435		-40.0831	
38.9907	2676.456		-40.06849	
39.04465	2674.456		-40.05555	
39.0986	2672.434		-40.04412	
39.15255	2670.389		-40.03409	
39.20649	2668.323		-40.0254	
39.26044	2666.247		-40.01802	
39.31439	2664.169		-40.01194	
39.36834	2662.096		-40.00715	
39.42228	2660.025		-40.0036	
39.47623	2657.947		-40.00126	
39.53018	2655.848		-40.00005	
39.58413	2653.715		-39.99992	
39.63807	2651.536		-40.00081	
39.69202	2649.304		-40.00267	
39.74597	2647.02		-40.00541	
39.79992	2644.698		-40.00894	
39.85386	2642.359		-40.01314	
39.90781	2640.025		-40.01786	
39.96176	2637.718		-40.02287	
40.01571	2635.452		-40.02793	
40.06965	2633.232		-40.03273	
40.1236	2631.058		-40.03695	
40.17755	2628.928		-40.04026	
40.23149	2626.838		-40.04238	
40.28544	2624.773		-40.04305	
40.33939	2622.716		-40.04203	
40.39334	2620.649		-40.03912	
40.44728	2618.554		-40.03412	
40.50123	2616.415		-40.02688	
40.55518	2614.229		-40.0173	
40.60913	2612.005		-40.00531	
40.66307	2609.757		-39.99094	
40.71702	2607.495		-39.97429	
40.77097	2605.228		-39.95547	
40.82492	2602.958		-39.93467	
40.87886	2600.688		-39.91206	
40.93281	2598.424		-39.88786	
40.98676	2596.169		-39.86225	
41.04071	2593.929		-39.83541	
41.09465	2591.704		-39.8075	
41.1486	2589.489		-39.77863	
41.20255	2587.28		-39.74889	
41.2565	2585.07		-39.71836	
41.31044	2582.853		-39.68713	
41.36439	2580.618		-39.65526	
41.41834	2578.36		-39.62284	
41.47229	2576.077		-39.58997	
41.52623	2573.784		-39.55677	
41.58018	2571.503		-39.52345	
41.63413	2569.247		-39.49024	
41.68808	2567.021		-39.45741	
41.74202	2564.826		-39.42521	
41.79597	2562.664		-39.39386	
41.84992	2560.538		-39.36357	
41.90387	2558.451		-39.33442	
41.95781	2556.411		-39.30643	
42.01176	2554.414		-39.27954	
42.06571	2552.453		-39.25362	
42.11966	2550.513		-39.22847	
42.1736	2548.584		-39.20385	
42.22755	2546.656		-39.17945	
42.2815	2544.72		-39.15499	
42.33545	2542.777		-39.1302	
42.38939	2540.826		-39.10478	
42.44334	2538.869		-39.07845	
42.49729	2536.904		-39.05098	
42.55124	2534.935		-39.02213	
42.60518	2532.966		-38.99177	
42.65913	2531.001		-38.95981	
42.71308	2529.044		-38.92632	
42.76702	2527.091		-38.89145	
42.82097	2525.13		-38.85544	
42.87492	2523.151		-38.81861	
42.92887	2521.143		-38.78133	
42.98281	2519.105		-38.74399	
43.03676	2517.034		-38.70697	
43.09071	2514.928		-38.67065	
43.14466	2512.789		-38.63538	
43.1986	2510.623		-38.60143	
43.25255	2508.437		-38.56901	
43.3065	2506.239		-38.53825	
43.36045	2504.034		-38.50922	
43.41439	2501.823		-38.48195	
43.46834	2499.608		-38.45644	
43.52229	2497.395		-38.43269	
43.57624	2495.191		-38.41071	
43.63018	2492.999		-38.39053	
43.68413	2490.826		-38.37218	
43.73808	2488.67		-38.35571	
43.79203	2486.53		-38.3411	
43.84597	2484.399		-38.32833	
43.89992	2482.274		-38.31731	
43.95387	2480.154		-38.30793	
44.00782	2478.035		-38.30001	
44.06176	2475.914		-38.29337	
44.11571	2473.783		-38.28774	
44.16966	2471.633		-38.28283	
44.22361	2469.469		-38.27827	
44.27755	2467.305		-38.27368	
44.3315	2465.149		-38.26868	
44.38545	2463.008		-38.26289	
44.4394	2460.885		-38.25593	
44.49334	2458.786		-38.24741	
44.54729	2456.716		-38.23695	
44.60124	2454.673		-38.22414	
44.65519	2452.655		-38.20861	
44.70913	2450.664		-38.19006	
44.76308	2448.698		-38.16828	
44.81703	2446.75		-38.14316	
44.87098	2444.805		-38.1147	
44.92492	2442.855		-38.083	
44.97887	2440.899		-38.04823	
45.03282	2438.94		-38.01067	
45.08677	2436.984		-37.97066	
45.14071	2435.037		-37.9286	
45.19466	2433.103		-37.88491	
45.24861	2431.179		-37.84007	
45.30256	2429.259		-37.79449	
45.3565	2427.334		-37.74863	
45.41045	2425.398		-37.70288	
45.4644	2423.449		-37.65765	
45.51834	2421.49		-37.61336	
45.57229	2419.516		-37.5704	
45.62624	2417.523		-37.52914	
45.68019	2415.509		-37.48995	
45.73413	2413.471		-37.45311	
45.78808	2411.408		-37.41889	
45.84203	2409.321		-37.38748	
45.89598	2407.216		-37.35901	
45.94992	2405.1		-37.33356	
46.00387	2402.99		-37.31117	
46.05782	2400.894		-37.29185	
46.11177	2398.804		-37.27557	
46.16571	2396.712		-37.26229	
46.21966	2394.611		-37.2519	
46.27361	2392.496		-37.24427	
46.32756	2390.37		-37.23919	
46.3815	2388.243		-37.23642	
46.43545	2386.124		-37.23563	
46.4894	2384.023		-37.23643	
46.54335	2381.952		-37.23835	
46.59729	2379.916		-37.24082	
46.65124	2377.917		-37.24319	
46.70519	2375.953		-37.24483	
46.75914	2374.026		-37.24509	
46.81308	2372.126		-37.24339	
46.86703	2370.236		-37.23921	
46.92098	2368.339		-37.23208	
46.97493	2366.422		-37.22164	
47.02887	2364.484		-37.20761	
47.08282	2362.532		-37.18982	
47.13677	2360.577		-37.16818	
47.19072	2358.634		-37.14271	
47.24466	2356.712		-37.11348	
47.29861	2354.811		-37.08065	
47.35256	2352.918		-37.04443	
47.40651	2351.016		-37.00503	
47.46045	2349.096		-36.96275	
47.5144	2347.155		-36.91792	
47.56835	2345.19		-36.87095	
47.6223	2343.202		-36.82224	
47.67624	2341.193		-36.77217	
47.73019	2339.166		-36.72115	
47.78414	2337.123		-36.66952	
47.83809	2335.063		-36.6176	
47.89203	2332.988		-36.56568	
47.94598	2330.901		-36.51408	
47.99993	2328.809		-36.4631	
48.05387	2326.715		-36.41304	
48.10782	2324.619		-36.36422	
48.16177	2322.518		-36.31691	
48.21572	2320.41		-36.27139	
48.26966	2318.298		-36.22792	
48.32361	2316.188		-36.18668	
48.37756	2314.083		-36.14784	
48.43151	2311.989		-36.11149	
48.48545	2309.91		-36.07768	
48.5394	2307.854		-36.04638	
48.59335	2305.83		-36.0175	
48.6473	2303.837		-35.99084	
48.70124	2301.876		-35.96615	
48.75519	2299.952		-35.94314	
48.80914	2298.066		-35.92149	
48.86309	2296.215		-35.90086	
48.91703	2294.397		-35.8809	
48.97098	2292.602		-35.86126	
49.02493	2290.82		-35.8416	
49.07888	2289.041		-35.82158	
49.13282	2287.26		-35.80092	
49.18677	2285.478		-35.77938	
49.24072	2283.697		-35.75677	
49.29467	2281.917		-35.73295	
49.34861	2280.137		-35.70783	
49.40256	2278.354		-35.68134	
49.45651	2276.567		-35.65348	
49.51046	2274.771		-35.62431	
49.5644	2272.959		-35.59396	
49.61835	2271.124		-35.56258	
49.6723	2269.26		-35.53038	
49.72625	2267.366		-35.49755	
49.78019	2265.449		-35.46431	
49.83414	2263.513		-35.43083	
49.88809	2261.568		-35.39729	
49.94204	2259.628		-35.36392	
49.99598	2257.706		-35.33094	
50.04993	2255.804		-35.29861	
50.10388	2253.918		-35.26722	
50.15783	2252.039		-35.23701	
50.21177	2250.158		-35.20825	
50.26572	2248.268		-35.18116	
50.31967	2246.362		-35.15593	
50.37362	2244.438		-35.13273	
50.42756	2242.495		-35.11172	
50.48151	2240.532		-35.09301	
50.53546	2238.55		-35.07671	
50.58941	2236.559		-35.06288	
50.64335	2234.568		-35.05156	
50.6973	2232.589		-35.04273	
50.75125	2230.625		-35.03637	
50.80519	2228.678		-35.03238	
50.85914	2226.749		-35.03067	
50.91309	2224.829		-35.03112	
50.96704	2222.909		-35.03358	
51.02098	2220.981		-35.03785	
51.07493	2219.04		-35.04371	
51.12888	2217.085		-35.05095	
51.18283	2215.116		-35.05928	
51.23677	2213.137		-35.06846	
51.29072	2211.155		-35.07821	
51.34467	2209.174		-35.08827	
51.39862	2207.199		-35.09838	
51.45256	2205.238		-35.10833	
51.50651	2203.302		-35.1179	
51.56046	2201.402		-35.12693	
51.61441	2199.543		-35.13525	
51.66835	2197.721		-35.14273	
51.7223	2195.929		-35.14925	
51.77625	2194.154		-35.15466	
51.8302	2192.383		-35.15886	
51.88414	2190.606		-35.16174	
51.93809	2188.828		-35.16319	
51.99204	2187.047		-35.16313	
52.04599	2185.266		-35.16153	
52.09993	2183.486		-35.15834	
52.15388	2181.707		-35.15359	
52.20783	2179.93		-35.14732	
52.26178	2178.153		-35.13961	
52.31572	2176.374		-35.13054	
52.36967	2174.594		-35.1202	
52.42362	2172.808		-35.10868	
52.47757	2171.01		-35.09607	
52.53151	2169.187		-35.08241	
52.58546	2167.332		-35.06777	
52.63941	2165.441		-35.05218	
52.69336	2163.509		-35.03565	
52.7473	2161.54		-35.01822	
52.80125	2159.546		-34.99991	
52.8552	2157.539		-34.98074	
52.90915	2155.533		-34.96075	
52.96309	2153.54		-34.93994	
53.01704	2151.566		-34.91831	
53.07099	2149.61		-34.89588	
53.12494	2147.664		-34.87261	
53.17888	2145.715		-34.8485	
53.23283	2143.759		-34.82351	
53.28678	2141.799		-34.79762	
53.34072	2139.834		-34.77079	
53.39467	2137.868		-34.74298	
53.44862	2135.899		-34.71417	
53.50257	2133.928		-34.68431	
53.55651	2131.962		-34.65338	
53.61046	2130.005		-34.62132	
53.66441	2128.062		-34.5881	
53.71836	2126.135		-34.55369	
53.7723	2124.223		-34.51804	
53.82625	2122.323		-34.48114	
53.8802	2120.432		-34.44295	
53.93415	2118.552		-34.40342	
53.98809	2116.676		-34.36252	
54.04204	2114.798		-34.32023	
54.09599	2112.913		-34.27655	
54.14994	2111.025		-34.23153	
54.20388	2109.137		-34.18521	
54.25783	2107.253		-34.13769	
54.31178	2105.375		-34.08908	
54.36573	2103.505		-34.03955	
54.41967	2101.646		-33.98929	
54.47362	2099.799		-33.93852	
54.52757	2097.97		-33.88752	
54.58152	2096.162		-33.83654	
54.63546	2094.373		-33.78584	
54.68941	2092.6		-33.73565	
54.74336	2090.833		-33.68618	
54.79731	2089.062		-33.63763	
54.85125	2087.288		-33.59013	
54.9052	2085.516		-33.54381	
54.95915	2083.752		-33.49875	
55.0131	2082.004		-33.45501	
55.06704	2080.276		-33.41264	
55.12099	2078.567		-33.3717	
55.17494	2076.872		-33.33227	
55.22889	2075.185		-33.29444	
55.28283	2073.499		-33.25829	
55.33678	2071.809		-33.22394	
55.39073	2070.11		-33.19152	
55.44468	2068.399		-33.16116	
55.49862	2066.678		-33.13297	
55.55257	2064.951		-33.10707	
55.60652	2063.217		-33.08355	
55.66047	2061.481		-33.06247	
55.71441	2059.747		-33.04388	
55.76836	2058.016		-33.02781	
55.82231	2056.29		-33.0143	
55.87626	2054.569		-33.00337	
55.9302	2052.851		-32.995	
55.98415	2051.129		-32.98916	
56.0381	2049.398		-32.9858	
56.09204	2047.652		-32.98481	
56.14599	2045.89		-32.98604	
56.19994	2044.113		-32.98928	
56.25389	2042.322		-32.9943	
56.30783	2040.519		-33.00078	
56.36178	2038.704		-33.00843	
56.41573	2036.879		-33.01691	
56.46968	2035.052		-33.0259	
56.52362	2033.229		-33.03506	
56.57757	2031.412		-33.04405	
56.63152	2029.6		-33.05254	
56.68547	2027.788		-33.06017	
56.73941	2025.972		-33.06655	
56.79336	2024.15		-33.07128	
56.84731	2022.324		-33.07392	
56.90126	2020.493		-33.07404	
56.9552	2018.657		-33.07121	
57.00915	2016.813		-33.06503	
57.0631	2014.957		-33.05513	
57.11705	2013.095		-33.04121	
57.17099	2011.231		-33.02301	
57.22494	2009.375		-33.00031	
57.27889	2007.538		-32.97298	
57.33284	2005.724		-32.94097	
57.38678	2003.936		-32.90432	
57.44073	2002.172		-32.86316	
57.49468	2000.431		-32.8177	
57.54863	1998.704		-32.76817	
57.60257	1996.981		-32.71489	
57.65652	1995.253		-32.65818	
57.71047	1993.51		-32.59836	
57.76442	1991.747		-32.5358	
57.81836	1989.96		-32.4709	
57.87231	1988.15		-32.40406	
57.92626	1986.318		-32.33574	
57.98021	1984.471		-32.26641	
58.03415	1982.613		-32.19654	
58.0881	1980.753		-32.12657	
58.14205	1978.898		-32.05692	
58.196	1977.052		-31.98798	
58.24994	1975.223		-31.9201	
58.30389	1973.408		-31.85356	
58.35784	1971.602		-31.78862	
58.41179	1969.797		-31.72545	
58.46573	1967.989		-31.66417	
58.51968	1966.176		-31.60484	
58.57363	1964.359		-31.54743	
58.62757	1962.542		-31.49191	
58.68152	1960.735		-31.43817	
58.73547	1958.945		-31.3861	
58.78942	1957.181		-31.33556	
58.84336	1955.449		-31.28638	
58.89731	1953.759		-31.23839	
58.95126	1952.118		-31.19144	
59.00521	1950.532		-31.14542	
59.05915	1949		-31.10019	
59.1131	1947.519		-31.05564	
59.16705	1946.08		-31.01162	
59.221	1944.673		-30.968	
59.27494	1943.288		-30.92464	
59.32889	1941.916		-30.88142	
59.38284	1940.547		-30.83823	
59.43679	1939.169		-30.79498	
59.49073	1937.777		-30.75156	
59.54468	1936.363		-30.70791	
59.59863	1934.918		-30.66398	
59.65258	1933.433		-30.61974	
59.70652	1931.907		-30.57517	
59.76047	1930.344		-30.53028	
59.81442	1928.752		-30.48513	
59.86837	1927.135		-30.43978	
59.92231	1925.495		-30.39431	
59.97626	1923.831		-30.34884	
60.03021	1922.143		-30.30347	
60.08416	1920.428		-30.2583	
60.1381	1918.685		-30.21336	
60.19205	1916.914		-30.16869	
60.246	1915.129		-30.12424	
60.29995	1913.342		-30.07996	
60.35389	1911.565		-30.03571	
60.40784	1909.805		-29.99136	
60.46179	1908.06		-29.94669	
60.51574	1906.32		-29.90146	
60.56968	1904.581		-29.8554	
60.62363	1902.845		-29.80822	
60.67758	1901.113		-29.75961	
60.73153	1899.388		-29.70929	
60.78547	1897.672		-29.65696	
60.83942	1895.974		-29.60234	
60.89337	1894.298		-29.54514	
60.94732	1892.647		-29.4851	
61.00126	1891.023		-29.42199	
61.05521	1889.427		-29.35561	
61.10916	1887.854		-29.28579	
61.16311	1886.294		-29.2124	
61.21705	1884.734		-29.13532	
61.271	1883.164		-29.05445	
61.32495	1881.577		-28.96971	
61.37889	1879.969		-28.88106	
61.43284	1878.342		-28.78843	
61.48679	1876.698		-28.69179	
61.54074	1875.038		-28.59109	
61.59468	1873.361		-28.48631	
61.64863	1871.672		-28.37742	
61.70258	1869.983		-28.26442	
61.75653	1868.309		-28.14734	
61.81047	1866.659		-28.02626	
61.86442	1865.044		-27.90129	
61.91837	1863.469		-27.77256	
61.97232	1861.944		-27.64023	
62.02626	1860.469		-27.50443	
62.08021	1859.032		-27.36526	
62.13416	1857.623		-27.22277	
62.18811	1856.231		-27.07696	
62.24205	1854.849		-26.92778	
62.296	1853.47		-26.77513	
62.34995	1852.086		-26.61883	
62.4039	1850.693		-26.45868	
62.45784	1849.288		-26.29443	
62.51179	1847.876		-26.12578	
62.56574	1846.467		-25.95243	
62.61969	1845.075		-25.77404	
62.67363	1843.713		-25.59028	
62.72758	1842.39		-25.40084	
62.78153	1841.11		-25.20538	
62.83548	1839.872		-25.00356	
62.88942	1838.667		-24.79506	
62.94337	1837.481		-24.57948	
62.99732	1836.294		-24.35645	
63.05127	1835.094		-24.12559	
63.10521	1833.872		-23.8865	
63.15916	1832.62		-23.63882	
63.21311	1831.335		-23.38221	
63.26706	1830.014		-23.11633	
63.321	1828.662		-22.84091	
63.37495	1827.291		-22.55566	
63.4289	1825.916		-22.26033	
63.48285	1824.549		-21.95468	
63.53679	1823.196		-21.63847	
63.59074	1821.86		-21.31143	
63.64469	1820.545		-20.97328	
63.69864	1819.254		-20.62373	
63.75258	1817.985		-20.26241	
63.80653	1816.735		-19.88894	
63.86048	1815.494		-19.50289	
63.91442	1814.257		-19.10372	
63.96837	1813.018		-18.69085	
64.02232	1811.776		-18.2636	
64.07626	1810.53		-17.82112	
64.13021	1809.285		-17.36255	
64.18416	1808.052		-16.88692	
64.23811	1806.845		-16.39321	
64.29205	1805.678		-15.88034	
64.346	1804.559		-15.34718	
64.39995	1803.492		-14.79256	
64.4539	1802.477		-14.21527	
64.50784	1801.509		-13.6141	
64.56179	1800.58		-12.98777	
64.61574	1799.687		-12.33502	
64.66969	1798.826		-11.65457	
64.72363	1797.996		-10.94516	
64.77758	1797.197		-10.20558	
64.83153	1796.436		-9.434626	
64.88548	1795.722		-8.631134	
64.93942	1795.057		-7.793968	
64.99337	1794.447		-6.922024	
65.04732	1793.892		-6.014245	
65.10126	1793.391		-5.069622	
65.15521	1792.94		-4.087213	
65.20916	1792.532		-3.066159	
65.26311	1792.16		-2.005684	
65.31705	1791.821		-0.9050976	
65.371	1791.516		0.2362233	
65.42495	1791.247		1.418847	
65.4789	1791.02		2.643291	
65.53284	1790.839		3.910028	
65.58679	1790.71		5.219497	
65.64074	1790.637		6.572124	
65.69469	1790.631		7.968335	
65.74863	1790.695		9.408574	
65.80258	1790.827		10.89332	
65.85653	1791.023		12.4231	
65.91048	1791.28		13.99852	
65.96442	1791.595		15.62024	
66.01837	1791.966		17.28902	
66.07232	1792.391		19.00571	
66.12627	1792.868		20.77122	
66.18021	1793.398		22.58653	
66.23416	1793.983		24.45265	
66.28811	1794.635		26.37065	
66.34206	1795.366		28.34163	
66.396	1796.187		30.36675	
66.44995	1797.114		32.44722	
66.5039	1798.165		34.58425	
66.55785	1799.355		36.77906	
66.61179	1800.698		39.03292	
66.66574	1802.205		41.34707	
66.71969	1803.88		43.72281	
66.77364	1805.725		46.16138	
66.82758	1807.74		48.66403	
66.88153	1809.916		51.23201	
66.93548	1812.242		53.86652	
66.98943	1814.712		56.56873	
67.04337	1817.318		59.33973	
67.09732	1820.064		62.18049	
67.15127	1822.953		65.09187	
67.20522	1825.994		68.07457	
67.25916	1829.194		71.12917	
67.31311	1832.56		74.25611	
67.36706	1836.093		77.4557	
67.42101	1839.789		80.72816	
67.47495	1843.65		84.07361	
67.5289	1847.675		87.49204	
67.58285	1851.865		90.98341	
67.6368	1856.228		94.54758	
67.69074	1860.765		98.18433	
67.74469	1865.477		101.8934	
67.79864	1870.355		105.6745	
67.85258	1875.391		109.5271	
67.90653	1880.579		113.4509	
67.96048	1885.926		117.4453	
68.01443	1891.439		121.5098	
68.06837	1897.132		125.6436	
68.12232	1903.022		129.8462	
68.17627	1909.13		134.1169	
68.23022	1915.48		138.455	
68.28416	1922.096		142.8597	
68.33811	1928.994		147.3305	
68.39206	1936.187		151.8666	
68.44601	1943.685		156.4674	
68.49995	1951.492		161.1322	
68.5539	1959.603		165.8605	
68.60785	1968.007		170.6516	
68.6618	1976.696		175.5049	
68.71574	1985.662		180.4198	
68.76969	1994.902		185.3956	
68.82364	2004.411		190.4315	
68.87759	2014.193		195.5267	
68.93153	2024.261		200.6802	
68.98548	2034.628		205.8909	
69.03943	2045.305		211.1572	
69.09338	2056.295		216.4776	
69.14732	2067.605		221.8498	
69.20127	2079.244		227.2713	
69.25522	2091.222		232.7393	
69.30917	2103.545		238.2504	
69.36311	2116.203		243.8005	
69.41706	2129.186		249.3855	
69.47101	2142.49		255.0004	
69.52496	2156.111		260.64	
69.5789	2170.041		266.2984	
69.63285	2184.27		271.9691	
69.6868	2198.792		277.6454	
69.74075	2213.605		283.3196	
69.79469	2228.719		288.9838	
69.84864	2244.146		294.6293	
69.90259	2259.904		300.2469	
69.95654	2276.01		305.827	
70.01048	2292.483		311.3592	
70.06443	2309.334		316.8329	
70.11838	2326.567		322.2368	
70.17233	2344.184		327.5594	
70.22627	2362.182		332.7891	
70.28022	2380.552		337.9136	
70.33417	2399.273		342.921	
70.38811	2418.332		347.799	
70.44206	2437.715		352.5352	
70.49601	2457.416		357.1176	
70.54996	2477.425		361.534	
70.6039	2497.743		365.7726	
70.65785	2518.384		369.8216	
70.7118	2539.374		373.6698	
70.76575	2560.726		377.3064	
70.81969	2582.443		380.7209	
70.87364	2604.531		383.9036	
70.92759	2626.998		386.8449	
70.98154	2649.849		389.5362	
71.03548	2673.078		391.9695	
71.08943	2696.681		394.1374	
71.14338	2720.653		396.0333	
71.19733	2744.982		397.6511	
71.25127	2769.657		398.9856	
71.30522	2794.659		400.0322	
71.35917	2819.962		400.7873	
71.41312	2845.537		401.2477	
71.46706	2871.365		401.4111	
71.52101	2897.429		401.2762	
71.57496	2923.71		400.8423	
71.62891	2950.182		400.1094	
71.68285	2976.806		399.0786	
71.7368	3003.534		397.7514	
71.79075	3030.312		396.1302	
71.8447	3057.082		394.2182	
71.89864	3083.788		392.0192	
71.95259	3110.381		389.5375	
72.00654	3136.813		386.7784	
72.06049	3163.034		383.7472	
72.11443	3188.987		380.4503	
72.16838	3214.623		376.8943	
72.22233	3239.896		373.0863	
72.27628	3264.76		369.0342	
72.33022	3289.162		364.7458	
72.38417	3313.056		360.2299	
72.43812	3336.403		355.4951	
72.49207	3359.169		350.5509	
72.54601	3381.313		345.4069	
72.59996	3402.804		340.0731	
72.65391	3423.62		334.5596	
72.70786	3443.753		328.8773	
72.7618	3463.198		323.0372	
72.81575	3481.963		317.0503	
72.8697	3500.064		310.9284	
72.92365	3517.51		304.6833	
72.97759	3534.304		298.3269	
73.03154	3550.44		291.8717	
73.08549	3565.915		285.3301	
73.13943	3580.729		278.7148	
73.19338	3594.882		272.0385	
73.24733	3608.38		265.3139	
73.30128	3621.234		258.5538	
73.35522	3633.455		251.771	
73.40917	3645.054		244.978	
73.46312	3656.045		238.1873	
73.51707	3666.454		231.4114	
73.57101	3676.315		224.6623	
73.62496	3685.672		217.9519	
73.67891	3694.565		211.2918	
73.73286	3703.017		204.6932	
73.7868	3711.044		198.1671	
73.84075	3718.66		191.724	
73.8947	3725.875		185.374	
73.94865	3732.704		179.1267	
74.00259	3739.172		172.9912	
74.05654	3745.32		166.976	
74.11049	3751.183		161.0889	
74.16444	3756.798		155.337	
74.21838	3762.208		149.727	
74.27233	3767.456		144.2645	
74.32628	3772.569		138.9545	
74.38023	3777.568		133.8013	
74.43417	3782.473		128.8082	
74.48812	3787.294		123.9778	
74.54207	3792.039		119.3118	
74.59602	3796.704		114.8112	
74.64996	3801.274		110.4762	
74.70391	3805.735		106.3064	
74.75786	3810.077		102.3005	
74.81181	3814.301		98.45694	
74.86575	3818.407		94.77325	
74.9197	3822.407		91.24664	
74.97365	3826.31		87.87377	
75.0276	3830.126		84.65091	
75.08154	3833.866		81.57387	
75.13549	3837.539		78.63811	
75.18944	3841.145		75.8388	
75.24339	3844.683		73.1708	
75.29733	3848.151		70.62878	
75.35128	3851.544		68.20728	
75.40523	3854.843		65.9007	
75.45918	3858.023		63.70341	
75.51312	3861.063		61.60976	
75.56707	3863.952		59.61408	
75.62102	3866.697		57.71076	
75.67496	3869.296		55.89426	
75.72891	3871.756		54.15916	
75.78286	3874.091		52.50024	
75.83681	3876.326		50.91246	
75.89075	3878.476		49.39103	
75.9447	3880.553		47.93139	
75.99865	3882.574		46.52924	
76.0526	3884.554		45.18056	
76.10654	3886.491		43.8816	
76.16049	3888.38		42.6289	
76.21444	3890.219		41.41928	
76.26839	3892.009		40.24988	
76.32233	3893.751		39.11814	
76.37628	3895.448		38.0217	
76.43023	3897.102		36.95845	
76.48418	3898.717		35.92646	
76.53812	3900.285		34.92394	
76.59207	3901.795		33.94927	
76.64602	3903.242		33.001	
76.69997	3904.628		32.07781	
76.75391	3905.969		31.17853	
76.80786	3907.274		30.30211	
76.86181	3908.558		29.44772	
76.91576	3909.833		28.61467	
76.9697	3911.102		27.80241	
77.02365	3912.371		27.01053	
77.0776	3913.641		26.23874	
77.13155	3914.91		25.48691	
77.18549	3916.168		24.755	
77.23944	3917.403		24.04307	
77.29339	3918.599		23.35125	
77.34734	3919.743		22.67973	
77.40128	3920.834		22.02873	
77.45523	3921.869		21.39845	
77.50918	3922.855		20.78911	
77.56313	3923.804		20.20088	
77.61707	3924.723		19.63388	
77.67102	3925.613		19.08821	
77.72497	3926.484		18.56389	
77.77892	3927.348		18.06095	
77.83286	3928.213		17.57932	
77.88681	3929.087		17.11892	
77.94076	3929.979		16.67957	
77.99471	3930.895		16.26107	
78.04865	3931.835		15.86315	
78.1026	3932.786		15.48548	
78.15655	3933.731		15.12767	
78.21049	3934.651		14.7893	
78.26444	3935.533		14.46985	
78.31839	3936.376		14.16873	
78.37234	3937.178		13.88522	
78.42628	3937.945		13.61849	
78.48023	3938.678		13.36759	
78.53418	3939.38		13.13144	
78.58813	3940.058		12.90882	
78.64207	3940.718		12.69842	
78.69602	3941.355		12.49885	
78.74997	3941.952		12.30867	
78.80392	3942.49		12.12643	
78.85786	3942.954		11.95077	
78.91181	3943.336		11.78038	
78.96576	3943.631		11.61411	
79.01971	3943.834		11.45101	
79.07365	3943.955		11.2903	
79.1276	3944.01		11.13147	
79.18155	3944.022		10.97422	
79.2355	3944.012		10.81848	
79.28944	3943.992		10.66442	
79.34339	3943.978		10.5124	
79.39734	3943.992		10.36296	
79.45129	3944.058		10.21677	
79.50523	3944.195		10.07463	
79.55918	3944.408		9.937409	
79.61313	3944.694		9.806075	
79.66708	3945.05		9.681682	
79.72102	3945.478		9.565359	
79.77497	3945.975		9.458298	
79.82892	3946.53		9.361706	
79.88287	3947.139		9.276775	
79.93681	3947.806		9.20464	
79.99076	3948.527		9.14636	
80.04471	3949.298		9.10289	
80.09866	3950.112		9.075068	
80.1526	3950.966		9.063588	
80.20655	3951.854		9.06897	
80.2605	3952.775		9.091504	
80.31445	3953.735		9.131234	
80.36839	3954.726		9.187925	
80.42234	3955.734		9.261084	
80.47629	3956.734		9.349936	
80.53024	3957.705		9.453458	
80.58418	3958.626		9.570358	
80.63813	3959.481		9.699103	
80.69208	3960.257		9.837913	
80.74603	3960.944		9.984776	
80.79997	3961.537		10.13747	
80.85392	3962.031		10.29363	
80.90787	3962.426		10.45078	
80.96181	3962.724		10.60641	
81.01576	3962.936		10.75805	
81.06971	3963.076		10.90329	
81.12366	3963.153		11.03979	
81.1776	3963.177		11.16535	
81.23155	3963.158		11.27798	
81.2855	3963.114		11.37587	
81.33945	3963.062		11.45746	
81.39339	3963.027		11.52145	
81.44734	3963.034		11.56677	
81.50129	3963.099		11.59264	
81.55524	3963.23		11.5985	
81.60918	3963.428		11.5841	
81.66313	3963.697		11.5495	
81.71708	3964.042		11.49499	
81.77103	3964.467		11.42114	
81.82497	3964.981		11.32869	
81.87892	3965.593		11.21849	
81.93287	3966.306		11.09149	
81.98682	3967.115		10.94869	
82.04076	3968.011		10.79115	
82.09471	3968.982		10.61998	
82.14866	3970.017		10.43623	
82.20261	3971.112		10.24092	
82.25655	3972.267		10.03496	
82.3105	3973.483		9.819119	
82.36445	3974.755		9.594045	
82.4184	3976.075		9.360242	
82.47234	3977.427		9.118051	
82.52629	3978.789		8.867661	
82.58024	3980.136		8.609075	
82.63419	3981.446		8.342102	
82.68813	3982.702		8.066322	
82.74208	3983.888		7.781092	
82.79603	3984.988		7.485524	
82.84998	3985.986		7.178514	
82.90392	3986.873		6.858768	
82.95787	3987.652		6.524844	
83.01182	3988.333		6.175172	
83.06577	3988.935		5.80811	
83.11971	3989.479		5.421965	
83.17366	3989.971		5.015065	
83.22761	3990.42		4.585776	
83.28156	3990.821		4.132548	
83.3355	3991.167		3.653952	
83.38945	3991.446		3.148723	
83.4434	3991.649		2.615791	
83.49734	3991.777		2.054314	
83.55129	3991.832		1.463692	
83.60524	3991.811		0.8436037	
83.65919	3991.709		0.1940184	
83.71313	3991.513		-0.4848078	
83.76708	3991.22		-1.192386	
83.82103	3990.835		-1.928033	
83.87498	3990.373		-2.690902	
83.92892	3989.862		-3.479998	
83.98287	3989.331		-4.294171	
84.03682	3988.802		-5.132114	
84.09077	3988.28		-5.992374	
84.14471	3987.766		-6.873377	
84.19866	3987.271		-7.77346	
84.25261	3986.806		-8.690908	
84.30656	3986.373		-9.623958	
84.3605	3985.965		-10.5708	
84.41445	3985.562		-11.52954	
84.4684	3985.141		-12.49826	
84.52235	3984.683		-13.47497	
84.57629	3984.182		-14.45771	
84.63024	3983.639		-15.44456	
84.68419	3983.058		-16.43372	
84.73814	3982.44		-17.42352	
84.79208	3981.792		-18.41241	
84.84603	3981.114		-19.39899	
84.89998	3980.403		-20.38202	
84.95393	3979.66		-21.36044	
85.00787	3978.882		-22.33331	
85.06182	3978.066		-23.29986	
85.11577	3977.201		-24.25949	
85.16972	3976.27		-25.21169	
85.22366	3975.257		-26.15608	
85.27761	3974.148		-27.09241	
85.33156	3972.928		-28.02051	
85.38551	3971.581		-28.94033	
85.43945	3970.102		-29.85189	
85.4934	3968.485		-30.75524	
85.54735	3966.734		-31.65044	
85.6013	3964.865		-32.53757	
85.65524	3962.899		-33.4167	
85.70919	3960.865		-34.28788	
85.76314	3958.788		-35.15118	
85.81709	3956.676		-36.00669	
85.87103	3954.53		-36.85448	
85.92498	3952.34		-37.69462	
85.97893	3950.095		-38.52714	
86.03288	3947.778		-39.35208	
86.08682	3945.374		-40.16942	
86.14077	3942.87		-40.97913	
86.19472	3940.267		-41.78114	
86.24866	3937.574		-42.57536	
86.30261	3934.807		-43.3617	
86.35656	3931.973		-44.14007	
86.41051	3929.073		-44.91035	
86.46445	3926.108		-45.67236	
86.5184	3923.089		-46.42588	
86.57235	3920.03		-47.17062	
86.6263	3916.949		-47.90629	
86.68024	3913.858		-48.63256	
86.73419	3910.768		-49.34911	
86.78814	3907.677		-50.05558	
86.84209	3904.578		-50.75158	
86.89603	3901.461		-51.43662	
86.94998	3898.332		-52.11026	
87.00393	3895.2		-52.77201	
87.05788	3892.078		-53.42146	
87.11182	3888.974		-54.05822	
87.16577	3885.891		-54.68197	
87.21972	3882.83		-55.29243	
87.27367	3879.786		-55.88937	
87.32761	3876.764		-56.47262	
87.38156	3873.773		-57.04212	
87.43551	3870.815		-57.59787	
87.48946	3867.88		-58.14	
87.5434	3864.951		-58.66867	
87.59735	3862.008		-59.1841	
87.6513	3859.035		-59.68653	
87.70525	3856.028		-60.17621	
87.75919	3852.99		-60.6534	
87.81314	3849.923		-61.11834	
87.86709	3846.828		-61.57127	
87.92104	3843.701		-62.01241	
87.97498	3840.535		-62.44197	
88.02893	3837.33		-62.86012	
88.08288	3834.091		-63.26703	
88.13683	3830.823		-63.66291	
88.19077	3827.534		-64.04797	
88.24472	3824.225		-64.42246	
88.29867	3820.888		-64.78663	
88.35262	3817.511		-65.14074	
88.40656	3814.079		-65.48507	
88.46051	3810.585		-65.8199	
88.51446	3807.029		-66.14555	
88.56841	3803.41		-66.46235	
88.62235	3799.729		-66.77065	
88.6763	3795.992		-67.07082	
88.73025	3792.205		-67.3632	
88.78419	3788.371		-67.64812	
88.83814	3784.489		-67.9258	
88.89209	3780.556		-68.19641	
88.94604	3776.577		-68.45998	
88.99998	3772.56		-68.71653	
89.05393	3768.521		-68.96598	
89.10788	3764.47		-69.20825	
89.16183	3760.411		-69.44321	
89.21577	3756.336		-69.67072	
89.26972	3752.242		-69.89058	
89.32367	3748.135		-70.10265	
89.37762	3744.025		-70.3068	
89.43156	3739.913		-70.50298	
89.48551	3735.792		-70.69123	
89.53946	3731.651		-70.87166	
89.59341	3727.493		-71.0444	
89.64735	3723.323		-71.20967	
89.7013	3719.149		-71.36767	
89.75525	3714.982		-71.51863	
89.8092	3710.842		-71.66282	
89.86314	3706.737		-71.80052	
89.91709	3702.668		-71.93205	
89.97104	3698.622		-72.05772	
90.02499	3694.589		-72.17781	
90.07893	3690.56		-72.29263	
90.13288	3686.542		-72.40248	
90.18683	3682.539		-72.50769	
90.24078	3678.562		-72.60861	
90.29472	3674.617		-72.70563	
90.34867	3670.71		-72.79916	
90.40262	3666.835		-72.88964	
90.45657	3662.989		-72.97756	
90.51051	3659.168		-73.06343	
90.56446	3655.372		-73.14783	
90.61841	3651.602		-73.23138	
90.67236	3647.858		-73.3147	
90.7263	3644.138		-73.39838	
90.78025	3640.438		-73.48298	
90.8342	3636.751		-73.56899	
90.88815	3633.071		-73.65684	
90.94209	3629.388		-73.74689	
90.99604	3625.699		-73.83944	
91.04999	3622.002		-73.93473	
91.10394	3618.295		-74.03294	
91.15788	3614.575		-74.13416	
91.21183	3610.833		-74.23847	
91.26578	3607.062		-74.34589	
91.31973	3603.262		-74.45638	
91.37367	3599.437		-74.56991	
91.42762	3595.593		-74.68641	
91.48157	3591.731		-74.80587	
91.53551	3587.854		-74.92829	
91.58946	3583.957		-75.05368	
91.64341	3580.039		-75.18208	
91.69736	3576.093		-75.31352	
91.7513	3572.112		-75.44801	
91.80525	3568.094		-75.58557	
91.8592	3564.039		-75.7262	
91.91315	3559.95		-75.86987	
91.96709	3555.834		-76.01649	
92.02104	3551.692		-76.16589	
92.07499	3547.534		-76.31782	
92.12894	3543.362		-76.47199	
92.18288	3539.175		-76.62806	
92.23683	3534.973		-76.7856	
92.29078	3530.751		-76.94415	
92.34473	3526.509		-77.10322	
92.39867	3522.238		-77.26224	
92.45262	3517.934		-77.37516	
92.50657	3513.59		-77.48203	
92.56052	3509.21		-77.58492	
92.61446	3504.796		-77.68569	
92.66841	3500.35		-77.78562	
92.72236	3495.875		-77.88545	
92.77631	3491.383		-77.98553	
92.83025	3486.873		-78.08596	
92.8842	3482.343		-78.18671	
92.93815	3477.792		-78.28768	
92.9921	3473.23		-78.38871	
93.04604	3468.661		-78.48965	
93.09999	3464.1		-78.59032	
93.15394	3459.562		-78.6906	
93.20789	3455.063		-78.79032	
93.26183	3450.615		-78.88937	
93.31578	3446.23		-78.98762	
93.36973	3441.911		-79.08497	
93.42368	3437.655		-79.18131	
93.47762	3433.445		-79.27657	
93.53157	3429.268		-79.37068	
93.58552	3425.11		-79.46356	
93.63947	3420.963		-79.55516	
93.69341	3416.817		-79.64544	
93.74736	3412.663		-79.73434	
93.80131	3408.486		-79.82185	
93.85526	3404.286		-79.90791	
93.9092	3400.064		-79.99253	
93.96315	3395.816		-80.07567	
94.0171	3391.538		-80.15731	
94.07104	3387.114		-80.23745	
94.12499	3382.687		-80.31608	
94.17894	3378.264		-80.39319	
94.23289	3373.846		-80.46879	
94.28683	3369.427		-80.54287	
94.34078	3365.007		-80.61544	
94.39473	3360.581		-80.68651	
94.44868	3356.148		-80.75609	
94.50262	3351.708		-80.8242	
94.55657	3347.26		-80.89084	
94.61052	3342.804		-80.95605	
94.66447	3338.34		-81.01985	
94.71841	3333.869		-81.08227	
94.77236	3329.391		-81.14332	
94.82631	3324.906		-81.20304	
94.88026	3320.416		-81.26148	
94.9342	3315.92		-81.31866	
94.98815	3311.418		-81.37462	
