T[Â°C]	350nm [counts / mm]	S.D.	First derivative	S.D. of first derivative
20.00033	4289.035		-65.0995	
20.05443	4285.634		-64.98347	
20.10854	4282.238		-64.86774	
20.16265	4278.846		-64.75233	
20.21675	4275.459		-64.63726	
20.27086	4272.075		-64.52258	
20.32496	4268.694		-64.40831	
20.37907	4265.316		-64.29447	
20.43317	4261.942		-64.18111	
20.48728	4258.572		-64.06826	
20.54138	4255.206		-63.95594	
20.59549	4251.845		-63.8442	
20.6496	4248.487		-63.73306	
20.7037	4245.134		-63.62257	
20.75781	4241.783		-63.51276	
20.81191	4238.437		-63.40365	
20.86602	4235.099		-63.29529	
20.92012	4231.779		-63.1877	
20.97423	4228.432		-63.08091	
21.02833	4225.04		-62.97495	
21.08244	4221.595		-62.86983	
21.13655	4218.102		-62.76558	
21.19065	4214.575		-62.66222	
21.24476	4211.031		-62.55975	
21.29886	4207.497		-62.4582	
21.35297	4203.992		-62.35756	
21.40707	4200.527		-62.25784	
21.46118	4197.103		-62.15902	
21.51529	4193.708		-62.06111	
21.56939	4190.328		-61.96408	
21.6235	4186.953		-61.86791	
21.6776	4183.577		-61.77257	
21.73171	4180.194		-61.67802	
21.78581	4176.804		-61.58419	
21.83992	4173.411		-61.49104	
21.89402	4170.024		-61.39846	
21.94813	4166.651		-61.30637	
22.00224	4163.303		-61.21465	
22.05634	4159.996		-61.12315	
22.11045	4156.74		-61.03169	
22.16455	4153.544		-60.94009	
22.21866	4150.409		-60.8481	
22.27276	4147.333		-60.75547	
22.32687	4144.309		-60.66193	
22.38097	4141.326		-60.5672	
22.43508	4138.375		-60.47113	
22.48919	4135.443		-60.37366	
22.54329	4132.513		-60.27505	
22.5974	4129.57		-60.17584	
22.6515	4126.598		-60.11202	
22.70561	4123.588		-60.04993	
22.75971	4120.535		-59.98977	
22.81382	4117.436		-59.93174	
22.86792	4114.301		-59.87603	
22.92203	4111.134		-59.82284	
22.97614	4107.941		-59.77233	
23.03024	4104.729		-59.72464	
23.08435	4101.503		-59.67986	
23.13845	4098.268		-59.63807	
23.19256	4095.017		-59.5993	
23.24666	4091.745		-59.56355	
23.30077	4088.447		-59.53079	
23.35488	4085.124		-59.50095	
23.40898	4081.784		-59.47394	
23.46309	4078.436		-59.44967	
23.51719	4075.085		-59.42802	
23.5713	4071.738		-59.40891	
23.6254	4068.397		-59.39218	
23.67951	4065.059		-59.37771	
23.73361	4061.721		-59.36533	
23.78772	4058.383		-59.35485	
23.84183	4055.048		-59.34608	
23.89593	4051.721		-59.3388	
23.95004	4048.41		-59.33281	
24.00414	4045.123		-59.32791	
24.05825	4041.87		-59.32393	
24.11235	4038.652		-59.32068	
24.16646	4035.468		-59.318	
24.22056	4032.319		-59.31572	
24.27467	4029.196		-59.31363	
24.32878	4026.09		-59.31152	
24.38288	4022.988		-59.30917	
24.43699	4019.878		-59.30639	
24.49109	4016.75		-59.30297	
24.5452	4013.602		-59.29876	
24.5993	4010.427		-59.29361	
24.65341	4007.217		-59.28742	
24.70752	4003.972		-59.28009	
24.76162	4000.699		-59.27155	
24.81573	3997.413		-59.2618	
24.86983	3994.124		-59.25089	
24.92394	3990.84		-59.23891	
24.97804	3987.559		-59.22599	
25.03215	3984.278		-59.21228	
25.08625	3981		-59.19796	
25.14036	3977.728		-59.18314	
25.19447	3974.465		-59.16792	
25.24857	3971.216		-59.15235	
25.30268	3967.981		-59.13642	
25.35678	3964.762		-59.12011	
25.41089	3961.561		-59.10335	
25.46499	3958.375		-59.08611	
25.5191	3955.208		-59.06832	
25.5732	3952.064		-59.04999	
25.62731	3948.952		-59.03114	
25.68142	3945.877		-59.01184	
25.73552	3942.84		-58.99218	
25.78963	3939.835		-58.97231	
25.84373	3936.853		-58.95234	
25.89784	3933.882		-58.93247	
25.95194	3930.908		-58.91287	
26.00605	3927.917		-58.89371	
26.06015	3924.891		-58.87512	
26.11426	3921.821		-58.85721	
26.16837	3918.701		-58.84006	
26.22247	3915.531		-58.82372	
26.27658	3912.319		-58.80823	
26.33068	3909.077		-58.79362	
26.38479	3905.813		-58.7799	
26.43889	3902.536		-58.76709	
26.493	3899.255		-58.75521	
26.54711	3895.972		-58.74427	
26.60121	3892.69		-58.73429	
26.65532	3889.406		-58.72526	
26.70942	3886.111		-58.71717	
26.76353	3882.803		-58.71	
26.81763	3879.487		-58.70372	
26.87174	3876.171		-58.69828	
26.92584	3872.864		-58.69357	
26.97995	3869.572		-58.68946	
27.03406	3866.299		-58.68573	
27.08816	3863.047		-58.68207	
27.14227	3859.815		-58.6781	
27.19637	3856.604		-58.67334	
27.25048	3853.416		-58.66728	
27.30458	3850.248		-58.65935	
27.35869	3847.095		-58.64895	
27.41279	3843.96		-58.63551	
27.4669	3840.841		-58.61849	
27.52101	3837.735		-58.59738	
27.57511	3834.638		-58.57178	
27.62922	3831.55		-58.54139	
27.68332	3828.466		-58.50603	
27.73743	3825.388		-58.46564	
27.79153	3822.317		-58.42028	
27.84564	3819.252		-58.37015	
27.89975	3816.192		-58.31552	
27.95385	3813.133		-58.2568	
28.00796	3810.061		-58.19442	
28.06206	3806.964		-58.12888	
28.11617	3803.832		-58.0607	
28.17027	3800.656		-57.99045	
28.22438	3797.437		-57.91873	
28.27848	3794.179		-57.84614	
28.33259	3790.898		-57.7733	
28.3867	3787.608		-57.70081	
28.4408	3784.325		-57.6293	
28.49491	3781.059		-57.55938	
28.54901	3777.82		-57.49165	
28.60312	3774.617		-57.42671	
28.65722	3771.448		-57.36515	
28.71133	3768.304		-57.3075	
28.76543	3765.169		-57.25423	
28.81954	3762.032		-57.20576	
28.87365	3758.885		-57.1624	
28.92775	3755.721		-57.12432	
28.98186	3752.535		-57.09162	
29.03596	3749.333		-57.06421	
29.09007	3746.125		-57.04192	
29.14417	3742.923		-57.02442	
29.19828	3739.741		-57.01133	
29.25238	3736.596		-57.00215	
29.30649	3733.501		-56.99636	
29.3606	3730.458		-56.99337	
29.4147	3727.474		-56.99256	
29.46881	3724.547		-56.99327	
29.52291	3721.675		-56.99482	
29.57702	3718.847		-56.99655	
29.63112	3716.048		-56.99788	
29.68523	3713.265		-56.99828	
29.73934	3710.482		-56.99738	
29.79344	3707.687		-56.99489	
29.84755	3704.874		-56.99063	
29.90165	3702.047		-56.98455	
29.95576	3699.206		-56.97664	
30.00986	3696.351		-56.96702	
30.06397	3693.479		-56.95581	
30.11807	3690.581		-56.94325	
30.17218	3687.647		-56.92956	
30.22629	3684.671		-56.91504	
30.28039	3681.654		-56.89999	
30.3345	3678.6		-56.88469	
30.3886	3675.51		-56.86938	
30.44271	3672.388		-56.85428	
30.49681	3669.233		-56.83957	
30.55092	3666.056		-56.82538	
30.60502	3662.868		-56.81184	
30.65913	3659.677		-56.799	
30.71324	3656.48		-56.78693	
30.76734	3653.274		-56.77561	
30.82145	3650.057		-56.76501	
30.87555	3646.829		-56.75506	
30.92966	3643.587		-56.74567	
30.98376	3640.328		-56.73672	
31.03787	3637.045		-56.72802	
31.09198	3633.732		-56.71939	
31.14608	3630.391		-56.71057	
31.20019	3627.032		-56.70127	
31.25429	3623.679		-56.69119	
31.3084	3620.355		-56.67992	
31.3625	3617.08		-56.66704	
31.41661	3613.864		-56.65206	
31.47071	3610.713		-56.63447	
31.52482	3607.626		-56.61373	
31.57893	3604.599		-56.58929	
31.63303	3601.625		-56.56065	
31.68714	3598.688		-56.52736	
31.74124	3595.767		-56.48903	
31.79535	3592.837		-56.44542	
31.84945	3589.878		-56.39639	
31.90356	3586.883		-56.34188	
31.95766	3583.853		-56.28201	
32.01177	3580.801		-56.21696	
32.06588	3577.743		-56.14704	
32.11998	3574.691		-56.07267	
32.17409	3571.645		-55.99435	
32.22819	3568.602		-55.91268	
32.2823	3565.559		-55.82829	
32.3364	3562.516		-55.74184	
32.39051	3559.471		-55.65403	
32.44461	3556.426		-55.56556	
32.49872	3553.384		-55.47708	
32.55283	3550.352		-55.38926	
32.60693	3547.335		-55.30267	
32.66104	3544.334		-55.21785	
32.71514	3541.345		-55.13527	
32.76925	3538.359		-55.05536	
32.82335	3535.371		-54.97855	
32.87746	3532.385		-54.90525	
32.93156	3529.42		-54.8359	
32.98567	3526.483		-54.77091	
33.03978	3523.579		-54.71075	
33.09388	3520.698		-54.65585	
33.14799	3517.832		-54.60662	
33.2021	3514.976		-54.56339	
33.2562	3512.129		-54.52634	
33.31031	3509.29		-54.49556	
33.36441	3506.463		-54.47099	
33.41851	3503.645		-54.45244	
33.47262	3500.833		-54.43956	
33.52673	3498.021		-54.43187	
33.58083	3495.207		-54.42872	
33.63494	3492.39		-54.42934	
33.68904	3489.574		-54.43288	
33.74315	3486.759		-54.43846	
33.79726	3483.94		-54.44525	
33.85136	3481.111		-54.45247	
33.90547	3478.263		-54.45942	
33.95957	3475.394		-54.4655	
34.01368	3472.501		-54.47022	
34.06778	3469.592		-54.47319	
34.12189	3466.681		-54.47414	
34.17599	3463.779		-54.47289	
34.2301	3460.891		-54.46934	
34.28421	3458.01		-54.46349	
34.33831	3455.122		-54.4554	
34.39242	3452.216		-54.4452	
34.44652	3449.287		-54.43311	
34.50063	3446.335		-54.41938	
34.55473	3443.367		-54.40429	
34.60884	3440.39		-54.38805	
34.66294	3437.412		-54.37085	
34.71705	3434.441		-54.35283	
34.77116	3431.474		-54.33409	
34.82526	3428.509		-54.31469	
34.87937	3425.538		-54.29471	
34.93347	3422.549		-54.27428	
34.98758	3419.534		-54.25356	
35.04168	3416.491		-54.23279	
35.09579	3413.414		-54.21226	
35.14989	3410.304		-54.19228	
35.204	3407.166		-54.1732	
35.25811	3404.004		-54.15531	
35.31221	3400.826		-54.13889	
35.36632	3397.641		-54.12417	
35.42042	3394.458		-54.11129	
35.47453	3391.282		-54.10027	
35.52863	3388.117		-54.09103	
35.58274	3384.964		-54.08329	
35.63684	3381.824		-54.07667	
35.69095	3378.702		-54.07069	
35.74506	3375.609		-54.06483	
35.79916	3372.551		-54.05857	
35.85327	3369.533		-54.05139	
35.90737	3366.562		-54.04279	
35.96148	3363.638		-54.03233	
36.01558	3360.766		-54.01961	
36.06969	3357.939		-54.00428	
36.12379	3355.163		-53.98607	
36.1779	3352.445		-53.96479	
36.23201	3349.784		-53.94036	
36.28611	3347.17		-53.91277	
36.34022	3344.586		-53.88214	
36.39433	3342.009		-53.84868	
36.44843	3339.423		-53.81272	
36.50254	3336.815		-53.77463	
36.55664	3334.174		-53.73485	
36.61074	3331.496		-53.69381	
36.66485	3328.778		-53.65196	
36.71896	3326.027		-53.60972	
36.77306	3323.256		-53.56748	
36.82717	3320.479		-53.52562	
36.88128	3317.699		-53.48447	
36.93538	3314.907		-53.44444	
36.98949	3312.091		-53.40589	
37.04359	3309.24		-53.36927	
37.0977	3306.348		-53.335	
37.1518	3303.417		-53.30353	
37.20591	3300.449		-53.27526	
37.26001	3297.442		-53.25055	
37.31412	3294.403		-53.22975	
37.36823	3291.342		-53.21312	
37.42233	3288.271		-53.20086	
37.47644	3285.202		-53.19309	
37.53054	3282.141		-53.1898	
37.58465	3279.092		-53.19086	
37.63875	3276.058		-53.1961	
37.69286	3273.044		-53.2052	
37.74696	3270.057		-53.21777	
37.80107	3267.099		-53.23332	
37.85518	3264.168		-53.25129	
37.90928	3261.264		-53.27105	
37.96339	3258.386		-53.29188	
38.01749	3255.535		-53.31305	
38.0716	3252.71		-53.33376	
38.1257	3249.909		-53.35326	
38.17981	3247.126		-53.37084	
38.23391	3244.353		-53.38587	
38.28802	3241.579		-53.39783	
38.34212	3238.796		-53.40627	
38.39623	3235.992		-53.41087	
38.45034	3233.161		-53.41137	
38.50444	3230.298		-53.4076	
38.55855	3227.406		-53.39949	
38.61265	3224.487		-53.38709	
38.66676	3221.542		-53.3705	
38.72086	3218.578		-53.34989	
38.77497	3215.609		-53.32546	
38.82907	3212.65		-53.29742	
38.88318	3209.711		-53.266	
38.93729	3206.795		-53.23143	
38.99139	3203.901		-53.19398	
39.0455	3201.021		-53.15398	
39.0996	3198.147		-53.11174	
39.15371	3195.273		-53.0676	
39.20781	3192.391		-53.02194	
39.26192	3189.493		-52.97515	
39.31602	3186.581		-52.92764	
39.37013	3183.649		-52.87985	
39.42424	3180.698		-52.83225	
39.47834	3177.726		-52.78527	
39.53245	3174.735		-52.73933	
39.58656	3171.736		-52.69483	
39.64066	3168.745		-52.65213	
39.69477	3165.781		-52.61154	
39.74887	3162.856		-52.57328	
39.80297	3159.98		-52.53753	
39.85708	3157.151		-52.50435	
39.91119	3154.357		-52.47379	
39.96529	3151.581		-52.44575	
40.0194	3148.813		-52.42011	
40.07351	3146.053		-52.39669	
40.12761	3143.299		-52.37523	
40.18172	3140.549		-52.35545	
40.23582	3137.806		-52.33704	
40.28993	3135.075		-52.3197	
40.34403	3132.355		-52.30309	
40.39814	3129.639		-52.28687	
40.45224	3126.918		-52.27071	
40.50635	3124.189		-52.25433	
40.56046	3121.454		-52.23746	
40.61456	3118.71		-52.21988	
40.66867	3115.955		-52.20141	
40.72277	3113.187		-52.18183	
40.77688	3110.406		-52.16091	
40.83098	3107.613		-52.13834	
40.88509	3104.806		-52.1138	
40.93919	3101.994		-52.08697	
40.9933	3099.182		-52.05749	
41.04741	3096.371		-52.02505	
41.10151	3093.558		-51.98936	
41.15562	3090.736		-51.95022	
41.20972	3087.907		-51.90745	
41.26383	3085.074		-51.86097	
41.31793	3082.252		-51.81083	
41.37204	3079.451		-51.75713	
41.42614	3076.685		-51.70009	
41.48025	3073.948		-51.64	
41.53436	3071.227		-51.57721	
41.58846	3068.51		-51.51214	
41.64257	3065.785		-51.44524	
41.69667	3063.045		-51.37699	
41.75078	3060.283		-51.30787	
41.80488	3057.503		-51.23841	
41.85899	3054.703		-51.16909	
41.91309	3051.876		-51.10041	
41.9672	3049.016		-51.03282	
42.02131	3046.122		-50.96672	
42.07541	3043.201		-50.90243	
42.12952	3040.258		-50.8402	
42.18362	3037.301		-50.78021	
42.23773	3034.341		-50.72262	
42.29183	3031.388		-50.66753	
42.34594	3028.445		-50.615	
42.40004	3025.506		-50.56509	
42.45415	3022.565		-50.5178	
42.50826	3019.624		-50.47309	
42.56236	3016.683		-50.43092	
42.61647	3013.748		-50.39117	
42.67057	3010.827		-50.35368	
42.72468	3007.929		-50.31823	
42.77879	3005.061		-50.28451	
42.83289	3002.229		-50.25219	
42.88699	2999.448		-50.22089	
42.9411	2996.728		-50.1902	
42.9952	2994.087		-50.15967	
43.04931	2991.53		-50.12887	
43.10342	2989.052		-50.09738	
43.15752	2986.642		-50.06481	
43.21163	2984.283		-50.03083	
43.26574	2981.96		-49.99516	
43.31984	2979.655		-49.95765	
43.37395	2977.351		-49.91817	
43.42805	2975.034		-49.87676	
43.48216	2972.689		-49.8335	
43.53626	2970.311		-49.78858	
43.59037	2967.896		-49.74225	
43.64447	2965.441		-49.69481	
43.69858	2962.945		-49.64663	
43.75269	2960.416		-49.59814	
43.80679	2957.859		-49.54983	
43.8609	2955.277		-49.50219	
43.915	2952.668		-49.45572	
43.96911	2950.03		-49.41089	
44.02321	2947.358		-49.36814	
44.07732	2944.646		-49.32784	
44.13142	2941.891		-49.29026	
44.18553	2939.098		-49.25565	
44.23964	2936.277		-49.22421	
44.29374	2933.433		-49.19608	
44.34785	2930.568		-49.17134	
44.40195	2927.694		-49.15004	
44.45606	2924.819		-49.13213	
44.51016	2921.947		-49.11751	
44.56427	2919.079		-49.10603	
44.61837	2916.226		-49.09748	
44.67248	2913.4		-49.09166	
44.72659	2910.604		-49.0883	
44.78069	2907.835		-49.08709	
44.8348	2905.089		-49.08768	
44.8889	2902.357		-49.08963	
44.94301	2899.639		-49.09245	
44.99711	2896.934		-49.09556	
45.05122	2894.242		-49.09838	
45.10532	2891.567		-49.10032	
45.15943	2888.911		-49.10075	
45.21354	2886.277		-49.09912	
45.26764	2883.666		-49.09495	
45.32175	2881.079		-49.0878	
45.37585	2878.516		-49.0773	
45.42996	2875.964		-49.06321	
45.48406	2873.414		-49.0453	
45.53817	2870.859		-49.02343	
45.59227	2868.294		-48.99755	
45.64638	2865.708		-48.96768	
45.70049	2863.1		-48.9339	
45.75459	2860.46		-48.89637	
45.8087	2857.79		-48.85538	
45.8628	2855.087		-48.81125	
45.91691	2852.359		-48.76435	
45.97102	2849.616		-48.71511	
46.02512	2846.87		-48.66391	
46.07922	2844.13		-48.61116	
46.13333	2841.405		-48.55721	
46.18744	2838.701		-48.50245	
46.24154	2836.024		-48.44717	
46.29565	2833.374		-48.39166	
46.34975	2830.75		-48.3361	
46.40386	2828.155		-48.28062	
46.45797	2825.582		-48.22527	
46.51207	2823.018		-48.17006	
46.56618	2820.455		-48.11499	
46.62028	2817.889		-48.06005	
46.67439	2815.328		-48.00525	
46.72849	2812.778		-47.9506	
46.7826	2810.243		-47.8961	
46.8367	2807.725		-47.84177	
46.89081	2805.226		-47.78758	
46.94492	2802.745		-47.73353	
46.99902	2800.275		-47.67961	
47.05313	2797.809		-47.6258	
47.10723	2795.336		-47.57212	
47.16134	2792.85		-47.51855	
47.21544	2790.347		-47.46516	
47.26955	2787.824		-47.41201	
47.32365	2785.281		-47.35919	
47.37776	2782.722		-47.30679	
47.43187	2780.15		-47.25492	
47.48597	2777.565		-47.20374	
47.54008	2774.969		-47.15338	
47.59418	2772.365		-47.10405	
47.64829	2769.755		-47.05597	
47.70239	2767.141		-47.00938	
47.7565	2764.522		-46.96456	
47.8106	2761.896		-46.92176	
47.86471	2759.262		-46.88123	
47.91882	2756.621		-46.8432	
47.97292	2753.976		-46.80781	
48.02703	2751.335		-46.77517	
48.08113	2748.714		-46.74533	
48.13524	2746.12		-46.7183	
48.18934	2743.558		-46.69404	
48.24345	2741.028		-46.67241	
48.29755	2738.523		-46.65318	
48.35166	2736.039		-46.63608	
48.40577	2733.569		-46.62072	
48.45987	2731.106		-46.60671	
48.51398	2728.645		-46.59361	
48.56808	2726.183		-46.58098	
48.62219	2723.719		-46.56839	
48.67629	2721.25		-46.55543	
48.7304	2718.774		-46.54173	
48.7845	2716.293		-46.52697	
48.83861	2713.811		-46.51089	
48.89272	2711.335		-46.49332	
48.94682	2708.878		-46.47419	
49.00093	2706.452		-46.45353	
49.05503	2704.055		-46.43146	
49.10914	2701.685		-46.40817	
49.16325	2699.333		-46.3839	
49.21735	2696.984		-46.35892	
49.27145	2694.621		-46.33356	
49.32556	2692.234		-46.30812	
49.37967	2689.818		-46.28291	
49.43377	2687.362		-46.25824	
49.48788	2684.863		-46.23447	
49.54198	2682.326		-46.21193	
49.59609	2679.763		-46.19105	
49.6502	2677.188		-46.17221	
49.7043	2674.615		-46.15583	
49.75841	2672.056		-46.14231	
49.81251	2669.511		-46.13203	
49.86662	2666.973		-46.12528	
49.92072	2664.433		-46.12233	
49.97483	2661.888		-46.12333	
50.02893	2659.33		-46.12835	
50.08304	2656.752		-46.13734	
50.13715	2654.145		-46.15017	
50.19125	2651.517		-46.16658	
50.24536	2648.876		-46.18621	
50.29946	2646.23		-46.20861	
50.35357	2643.587		-46.23328	
50.40767	2640.955		-46.25969	
50.46178	2638.345		-46.28728	
50.51588	2635.773		-46.31546	
50.56999	2633.249		-46.34367	
50.6241	2630.778		-46.37136	
50.6782	2628.354		-46.39798	
50.73231	2625.968		-46.42298	
50.78641	2623.609		-46.44582	
50.84052	2621.27		-46.46598	
50.89462	2618.939		-46.48301	
50.94873	2616.605		-46.49656	
51.00283	2614.261		-46.50632	
51.05694	2611.901		-46.51208	
51.11105	2609.525		-46.51368	
51.16515	2607.134		-46.51101	
51.21926	2604.728		-46.50402	
51.27336	2602.313		-46.49267	
51.32747	2599.893		-46.47697	
51.38157	2597.468		-46.45697	
51.43568	2595.027		-46.43279	
51.48978	2592.558		-46.40462	
51.54389	2590.049		-46.37272	
51.598	2587.494		-46.33739	
51.6521	2584.896		-46.29897	
51.70621	2582.267		-46.25784	
51.76031	2579.616		-46.21439	
51.81442	2576.953		-46.16901	
51.86852	2574.28		-46.12208	
51.92263	2571.603		-46.07394	
51.97673	2568.932		-46.02493	
52.03084	2566.269		-45.97528	
52.08495	2563.606		-45.92522	
52.13905	2560.937		-45.87487	
52.19316	2558.26		-45.82434	
52.24726	2555.578		-45.77364	
52.30137	2552.898		-45.72276	
52.35548	2550.225		-45.67162	
52.40958	2547.571		-45.62013	
52.46368	2544.951		-45.56818	
52.51779	2542.379		-45.51563	
52.5719	2539.86		-45.46235	
52.626	2537.397		-45.40823	
52.68011	2534.987		-45.35311	
52.73421	2532.624		-45.29684	
52.78832	2530.295		-45.23926	
52.84243	2527.985		-45.18023	
52.89653	2525.676		-45.11963	
52.95064	2523.352		-45.05733	
53.00474	2521.006		-44.99325	
53.05885	2518.632		-44.92728	
53.11295	2516.229		-44.85935	
53.16706	2513.799		-44.78939	
53.22116	2511.35		-44.71732	
53.27527	2508.898		-44.64314	
53.32938	2506.462		-44.56684	
53.38348	2504.056		-44.48857	
53.43759	2501.685		-44.40851	
53.49169	2499.341		-44.32693	
53.5458	2497.015		-44.24416	
53.5999	2494.702		-44.16057	
53.65401	2492.394		-44.07652	
53.70811	2490.085		-43.99244	
53.76222	2487.772		-43.90877	
53.81633	2485.454		-43.82596	
53.87043	2483.132		-43.74451	
53.92454	2480.813		-43.6649	
53.97864	2478.499		-43.58763	
54.03275	2476.191		-43.51314	
54.08685	2473.89		-43.44189	
54.14096	2471.599		-43.37427	
54.19506	2469.317		-43.31065	
54.24917	2467.045		-43.25134	
54.30328	2464.773		-43.19658	
54.35738	2462.499		-43.14657	
54.41149	2460.219		-43.10141	
54.46559	2457.933		-43.06114	
54.5197	2455.636		-43.02575	
54.5738	2453.324		-42.99513	
54.62791	2451		-42.96912	
54.68201	2448.666		-42.9475	
54.73612	2446.331		-42.92999	
54.79023	2444.003		-42.9163	
54.84433	2441.684		-42.90614	
54.89844	2439.365		-42.89918	
54.95255	2437.038		-42.89509	
55.00665	2434.705		-42.89353	
55.06075	2432.367		-42.89414	
55.11486	2430.018		-42.89654	
55.16896	2427.656		-42.90033	
55.22307	2425.282		-42.90508	
55.27718	2422.905		-42.91037	
55.33128	2420.537		-42.91577	
55.38539	2418.192		-42.92086	
55.4395	2415.877		-42.92518	
55.4936	2413.596		-42.92828	
55.54771	2411.348		-42.92972	
55.60181	2409.13		-42.92902	
55.65591	2406.935		-42.92576	
55.71002	2404.75		-42.91955	
55.76413	2402.564		-42.91008	
55.81823	2400.361		-42.89709	
55.87234	2398.132		-42.88043	
55.92645	2395.874		-42.85997	
55.98055	2393.584		-42.83561	
56.03466	2391.262		-42.80732	
56.08876	2388.914		-42.77508	
56.14287	2386.551		-42.73897	
56.19697	2384.186		-42.69915	
56.25108	2381.823		-42.65585	
56.30518	2379.462		-42.60934	
56.35929	2377.102		-42.55995	
56.41339	2374.734		-42.508	
56.4675	2372.358		-42.45386	
56.52161	2369.971		-42.39783	
56.57571	2367.575		-42.34021	
56.62982	2365.165		-42.28122	
56.68392	2362.742		-42.22113	
56.73803	2360.306		-42.16016	
56.79213	2357.866		-42.09855	
56.84624	2355.426		-42.03652	
56.90034	2352.987		-41.97432	
56.95445	2350.554		-41.91213	
57.00856	2348.13		-41.85017	
57.06266	2345.72		-41.78861	
57.11677	2343.323		-41.72762	
57.17087	2340.946		-41.66737	
57.22498	2338.593		-41.60795	
57.27908	2336.267		-41.54945	
57.33319	2333.968		-41.49192	
57.38729	2331.696		-41.43532	
57.4414	2329.448		-41.37958	
57.49551	2327.222		-41.32455	
57.54961	2325.013		-41.27005	
57.60372	2322.82		-41.21589	
57.65782	2320.644		-41.16189	
57.71193	2318.489		-41.10789	
57.76603	2316.36		-41.05378	
57.82014	2314.261		-40.99945	
57.87424	2312.19		-40.94483	
57.92835	2310.135		-40.88985	
57.98246	2308.088		-40.83448	
58.03656	2306.04		-40.77869	
58.09067	2303.988		-40.72254	
58.14477	2301.933		-40.66611	
58.19888	2299.878		-40.60957	
58.25298	2297.821		-40.55313	
58.30709	2295.759		-40.49701	
58.36119	2293.693		-40.44147	
58.4153	2291.625		-40.38677	
58.46941	2289.556		-40.33315	
58.52351	2287.486		-40.28082	
58.57762	2285.415		-40.23	
58.63173	2283.338		-40.18093	
58.68583	2281.249		-40.13383	
58.73994	2279.144		-40.0889	
58.79404	2277.022		-40.04633	
58.84814	2274.884		-40.0062	
58.90225	2272.734		-39.96853	
58.95636	2270.571		-39.93328	
59.01046	2268.396		-39.90032	
59.06457	2266.211		-39.86948	
59.11868	2264.013		-39.84052	
59.17278	2261.801		-39.8132	
59.22689	2259.571		-39.78724	
59.28099	2257.322		-39.76229	
59.3351	2255.056		-39.738	
59.3892	2252.786		-39.71392	
59.44331	2250.522		-39.68959	
59.49741	2248.276		-39.66449	
59.55152	2246.052		-39.63814	
59.60563	2243.851		-39.61005	
59.65973	2241.667		-39.57978	
59.71384	2239.497		-39.54689	
59.76794	2237.336		-39.51102	
59.82205	2235.184		-39.47178	
59.87615	2233.034		-39.42886	
59.93026	2230.886		-39.38196	
59.98436	2228.734		-39.33081	
60.03847	2226.581		-39.27519	
60.09258	2224.428		-39.21496	
60.14668	2222.276		-39.15001	
60.20079	2220.12		-39.08032	
60.25489	2217.958		-39.00591	
60.309	2215.786		-38.92683	
60.3631	2213.607		-38.84323	
60.41721	2211.421		-38.75528	
60.47131	2209.234		-38.66323	
60.52542	2207.051		-38.5674	
60.57952	2204.882		-38.46819	
60.63363	2202.726		-38.36604	
60.68774	2200.582		-38.26144	
60.74184	2198.442		-38.15488	
60.79595	2196.307		-38.0468	
60.85005	2194.175		-37.93765	
60.90416	2192.039		-37.8278	
60.95826	2189.898		-37.71761	
61.01237	2187.755		-37.60741	
61.06647	2185.618		-37.4975	
61.12058	2183.498		-37.38812	
61.17469	2181.398		-37.27952	
61.22879	2179.324		-37.17181	
61.2829	2177.272		-37.06508	
61.337	2175.243		-36.95929	
61.39111	2173.238		-36.85434	
61.44521	2171.261		-36.75012	
61.49932	2169.317		-36.64638	
61.55342	2167.408		-36.54289	
61.60753	2165.535		-36.43935	
61.66164	2163.699		-36.33548	
61.71574	2161.888		-36.23094	
61.76985	2160.092		-36.12539	
61.82396	2158.302		-36.01843	
61.87806	2156.516		-35.90968	
61.93217	2154.726		-35.79874	
61.98627	2152.931		-35.6853	
62.04037	2151.132		-35.56903	
62.09448	2149.331		-35.44963	
62.14859	2147.525		-35.32685	
62.20269	2145.712		-35.20042	
62.2568	2143.895		-35.07013	
62.31091	2142.08		-34.93575	
62.36501	2140.271		-34.79713	
62.41912	2138.475		-34.65413	
62.47322	2136.688		-34.50666	
62.52733	2134.909		-34.35466	
62.58143	2133.133		-34.19812	
62.63554	2131.355		-34.03698	
62.68964	2129.566		-33.87115	
62.74375	2127.76		-33.70057	
62.79786	2125.929		-33.52502	
62.85196	2124.069		-33.34436	
62.90607	2122.178		-33.15833	
62.96017	2120.253		-32.96675	
63.01428	2118.296		-32.76932	
63.06838	2116.313		-32.56577	
63.12249	2114.312		-32.3557	
63.17659	2112.304		-32.13872	
63.2307	2110.303		-31.9143	
63.28481	2108.32		-31.68187	
63.33891	2106.361		-31.44083	
63.39302	2104.431		-31.19046	
63.44712	2102.53		-30.93	
63.50123	2100.656		-30.65855	
63.55533	2098.809		-30.37522	
63.60944	2096.981		-30.079	
63.66354	2095.166		-29.76886	
63.71765	2093.356		-29.44364	
63.77176	2091.555		-29.10225	
63.82586	2089.766		-28.74352	
63.87997	2087.997		-28.36635	
63.93407	2086.259		-27.96966	
63.98818	2084.566		-27.55243	
64.04228	2082.927		-27.11375	
64.09639	2081.348		-26.65269	
64.1505	2079.826		-26.16847	
64.2046	2078.355		-25.66043	
64.25871	2076.925		-25.12772	
64.31281	2075.53		-24.56981	
64.36692	2074.166		-23.98618	
64.42102	2072.825		-23.3765	
64.47513	2071.501		-22.74022	
64.52924	2070.188		-22.07709	
64.58334	2068.88		-21.38691	
64.63744	2067.577		-20.66918	
64.69155	2066.281		-19.92371	
64.74566	2064.998		-19.15017	
64.79976	2063.731		-18.34844	
64.85387	2062.491		-17.51799	
64.90797	2061.282		-16.6587	
64.96208	2060.107		-15.77029	
65.01618	2058.968		-14.85267	
65.07029	2057.863		-13.90522	
65.1244	2056.792		-12.92772	
65.1785	2055.758		-11.91988	
65.2326	2054.767		-10.8809	
65.28671	2053.821		-9.81039	
65.34082	2052.929		-8.707695	
65.39492	2052.095		-7.572319	
65.44903	2051.326		-6.403081	
65.50314	2050.63		-5.199231	
65.55724	2050.015		-3.959715	
65.61134	2049.49		-2.68364	
65.66545	2049.055		-1.369394	
65.71956	2048.707		-0.01592123	
65.77366	2048.44		1.377853	
65.82777	2048.247		2.813617	
65.88187	2048.122		4.292484	
65.93598	2048.067		5.815789	
65.99008	2048.09		7.384537	
66.04419	2048.201		9.0005	
66.0983	2048.408		10.66466	
66.1524	2048.716		12.37821	
66.2065	2049.125		14.142	
66.26061	2049.631		15.9577	
66.31472	2050.232		17.82609	
66.36883	2050.933		19.74818	
66.42293	2051.73		21.72456	
66.47704	2052.626		23.75676	
66.53114	2053.615		25.84537	
66.58524	2054.693		27.99084	
66.63935	2055.852		30.19466	
66.69346	2057.09		32.45726	
66.74757	2058.41		34.77939	
66.80167	2059.819		37.16144	
66.85577	2061.325		39.60482	
66.90988	2062.934		42.10994	
66.96399	2064.656		44.67759	
67.01809	2066.498		47.30824	
67.0722	2068.471		50.00355	
67.1263	2070.583		52.76418	
67.1804	2072.838		55.59081	
67.23451	2075.241		58.48539	
67.28862	2077.796		61.44875	
67.34273	2080.509		64.48219	
67.39683	2083.381		67.58664	
67.45094	2086.411		70.76443	
67.50504	2089.594		74.01665	
67.55915	2092.935		77.34486	
67.61325	2096.447		80.75011	
67.66736	2100.149		84.23489	
67.72147	2104.055		87.80012	
67.77557	2108.174		91.44663	
67.82967	2112.511		95.17672	
67.88378	2117.071		98.991	
67.93789	2121.861		102.8905	
67.99199	2126.888		106.8755	
68.0461	2132.16		110.9477	
68.1002	2137.679		115.1072	
68.15431	2143.447		119.3541	
68.20841	2149.456		123.688	
68.26252	2155.699		128.1099	
68.31663	2162.164		132.6188	
68.37073	2168.845		137.2134	
68.42484	2175.741		141.8941	
68.47894	2182.855		146.6591	
68.53305	2190.189		151.507	
68.58715	2197.746		156.4354	
68.64126	2205.531		161.4439	
68.69537	2213.555		166.5298	
68.74947	2221.837		171.691	
68.80357	2230.394		176.9244	
68.85768	2239.244		182.2291	
68.91179	2248.394		187.6021	
68.96589	2257.843		193.0402	
69.02	2267.596		198.5424	
69.0741	2277.648		204.1058	
69.12821	2288		209.7278	
69.18231	2298.652		215.4056	
69.23642	2309.611		221.1384	
69.29053	2320.886		226.9231	
69.34464	2332.495		232.7574	
69.39874	2344.46		238.6383	
69.45284	2356.811		244.5648	
69.50695	2369.559		250.5338	
69.56106	2382.724		256.5424	
69.61516	2396.319		262.5867	
69.66927	2410.363		268.6654	
69.72337	2424.863		274.774	
69.77747	2439.816		280.9076	
69.83158	2455.213		287.0638	
69.88569	2471.036		293.237	
69.9398	2487.275		299.422	
69.9939	2503.92		305.6124	
70.048	2520.971		311.8037	
70.10211	2538.417		317.9882	
70.15622	2556.25		324.1584	
70.21032	2574.463		330.3054	
70.26443	2593.058		336.4219	
70.31853	2612.037		342.4976	
70.37263	2631.4		348.5212	
70.42674	2651.155		354.4834	
70.48085	2671.297		360.3716	
70.53496	2691.82		366.1735	
70.58906	2712.708		371.8754	
70.64317	2733.944		377.4657	
70.69727	2755.503		382.9299	
70.75138	2777.362		388.254	
70.80548	2799.503		393.4235	
70.85959	2821.919		398.4255	
70.9137	2844.605		403.2455	
70.9678	2867.553		407.869	
71.0219	2890.776		412.2839	
71.07601	2914.287		416.4765	
71.13012	2938.114		420.4343	
71.18422	2962.279		424.1449	
71.23833	2986.801		427.5981	
71.29243	3011.684		430.7827	
71.34654	3036.931		433.6892	
71.40064	3062.54		436.3084	
71.45475	3088.518		438.6331	
71.50886	3114.869		440.656	
71.56296	3141.59		442.3708	
71.61707	3168.686		443.7732	
71.67117	3196.137		444.8589	
71.72528	3223.931		445.6249	
71.77938	3252.036		446.0692	
71.83349	3280.432		446.1909	
71.8876	3309.078		445.9901	
71.9417	3337.946		445.4674	
71.9958	3366.997		444.625	
72.04991	3396.211		443.465	
72.10402	3425.545		441.9908	
72.15812	3454.948		440.2066	
72.21223	3484.369		438.1165	
72.26633	3513.754		435.7257	
72.32044	3543.051		433.0397	
72.37454	3572.207		430.0649	
72.42865	3601.178		426.8069	
72.48276	3629.908		423.2726	
72.53687	3658.335		419.4691	
72.59097	3686.386		415.4043	
72.64507	3713.99		411.0846	
72.69918	3741.075		406.5184	
72.75328	3767.574		401.7147	
72.80739	3793.441		396.6805	
72.8615	3818.622		391.4251	
72.9156	3843.076		385.9576	
72.9697	3866.77		380.2881	
73.02381	3889.691		374.4248	
73.07792	3911.833		368.3782	
73.13203	3933.206		362.1589	
73.18613	3953.818		355.7783	
73.24023	3973.695		349.2457	
73.29434	3992.85		342.5735	
73.34845	4011.292		335.7734	
73.40255	4029.021		328.8589	
73.45666	4046.043		321.8407	
73.51077	4062.363		314.7328	
73.56487	4077.991		307.5496	
73.61897	4092.941		300.3029	
73.67308	4107.214		293.0075	
73.72719	4120.819		285.6776	
73.78129	4133.777		278.3284	
73.8354	4146.126		270.9722	
73.8895	4157.912		263.6242	
73.94361	4169.18		256.2985	
73.99771	4179.971		249.0102	
74.05182	4190.333		241.7707	
74.10593	4200.299		234.5944	
74.16003	4209.889		227.4952	
74.21413	4219.123		220.4834	
74.26824	4228.006		213.5717	
74.32235	4236.541		206.7713	
74.37645	4244.731		200.0938	
74.43056	4252.587		193.547	
74.48466	4260.117		187.141	
74.53877	4267.33		180.8841	
74.59287	4274.231		174.7846	
74.64698	4280.835		168.8475	
74.70109	4287.167		163.0793	
74.75519	4293.252		157.4857	
74.8093	4299.119		152.0689	
74.8634	4304.79		146.8327	
74.91751	4310.282		141.7789	
74.97161	4315.615		136.9093	
75.02572	4320.812		132.2223	
75.07983	4325.893		127.7178	
75.13393	4330.876		123.3941	
75.18803	4335.77		119.2492	
75.24214	4340.574		115.2789	
75.29625	4345.288		111.4802	
75.35035	4349.901		107.8494	
75.40446	4354.406		104.3808	
75.45856	4358.798		101.0701	
75.51267	4363.083		97.91201	
75.56677	4367.268		94.90152	
75.62088	4371.365		92.03201	
75.67499	4375.373		89.29804	
75.7291	4379.294		86.6937	
75.7832	4383.131		84.21332	
75.8373	4386.89		81.85025	
75.89141	4390.58		79.5989	
75.94551	4394.208		77.45367	
75.99962	4397.784		75.40816	
76.05373	4401.308		73.45699	
76.10783	4404.772		71.59468	
76.16193	4408.163		69.81614	
76.21604	4411.47		68.11575	
76.27015	4414.684		66.48892	
76.32426	4417.803		64.93105	
76.37836	4420.834		63.43803	
76.43246	4423.78		62.00536	
76.48657	4426.642		60.62947	
76.54068	4429.426		59.30682	
76.59478	4432.148		58.03438	
76.64889	4434.827		56.80886	
76.703	4437.467		55.62784	
76.7571	4440.063		54.48914	
76.8112	4442.617		53.39032	
76.86531	4445.127		52.32962	
76.91942	4447.602		51.30523	
76.97352	4450.049		50.31556	
77.02763	4452.474		49.3587	
77.08173	4454.883		48.43321	
77.13584	4457.284		47.53759	
77.18994	4459.686		46.67048	
77.24405	4462.098		45.83022	
77.29816	4464.522		45.01555	
77.35226	4466.95		44.22522	
77.40636	4469.367		43.45769	
77.46047	4471.756		42.71175	
77.51458	4474.105		41.98611	
77.56868	4476.402		41.2796	
77.62279	4478.632		40.59077	
77.6769	4480.776		39.91851	
77.731	4482.83		39.26166	
77.7851	4484.796		38.61923	
77.83921	4486.688		37.99006	
77.89332	4488.52		37.37335	
77.94742	4490.306		36.76843	
78.00153	4492.055		36.17451	
78.05563	4493.775		35.59122	
78.10974	4495.465		35.01826	
78.16384	4497.125		34.45559	
78.21795	4498.75		33.90309	
78.27206	4500.331		33.36107	
78.32616	4501.856		32.8299	
78.38026	4503.326		32.31009	
78.43437	4504.739		31.80206	
78.48848	4506.095		31.30655	
78.54258	4507.403		30.82434	
78.59669	4508.694		30.35614	
78.65079	4510.002		29.90291	
78.7049	4511.348		29.4656	
78.759	4512.745		29.04533	
78.81311	4514.205		28.64305	
78.86722	4515.733		28.25994	
78.92133	4517.329		27.89711	
78.97543	4518.977		27.55573	
79.02953	4520.658		27.23685	
79.08364	4522.346		26.94161	
79.13774	4524.014		26.6711	
79.19185	4525.645		26.42616	
79.24596	4527.236		26.20769	
79.30006	4528.792		26.01637	
79.35416	4530.318		25.85277	
79.40827	4531.811		25.71718	
79.46238	4533.261		25.60973	
79.51649	4534.657		25.53028	
79.57059	4535.994		25.47847	
79.62469	4537.263		25.45367	
79.6788	4538.457		25.45512	
79.73291	4539.566		25.48189	
79.78701	4540.588		25.53293	
79.84112	4541.527		25.60714	
79.89523	4542.396		25.70334	
79.94933	4543.208		25.82034	
80.00343	4543.977		25.95706	
80.05754	4544.711		26.11238	
80.11165	4545.425		26.28529	
80.16575	4546.129		26.47479	
80.21986	4546.84		26.6801	
80.27396	4547.565		26.90043	
80.32807	4548.315		27.13511	
80.38217	4549.098		27.38349	
80.43628	4549.921		27.64507	
80.49039	4550.792		27.91934	
80.54449	4551.729		28.20579	
80.59859	4552.737		28.5041	
80.6527	4553.824		28.81388	
80.70681	4554.987		29.13479	
80.76091	4556.239		29.46646	
80.81502	4557.595		29.80867	
80.86913	4559.075		30.16108	
80.92323	4560.684		30.52343	
80.97733	4562.422		30.89541	
81.03144	4564.276		31.27684	
81.08555	4566.228		31.66734	
81.13965	4568.246		32.06643	
81.19376	4570.306		32.47367	
81.24786	4572.384		32.88842	
81.30197	4574.472		33.30992	
81.35607	4576.572		33.73717	
81.41018	4578.694		34.16917	
81.46429	4580.843		34.60453	
81.51839	4583.025		35.04168	
81.57249	4585.249		35.47876	
81.6266	4587.51		35.91386	
81.68071	4589.802		36.34465	
81.73481	4592.117		36.76865	
81.78892	4594.447		37.18332	
81.84303	4596.78		37.58587	
81.89713	4599.103		37.97343	
81.95123	4601.399		38.34313	
82.00534	4603.677		38.69227	
82.05945	4605.939		39.01812	
82.11356	4608.197		39.31812	
82.16766	4610.456		39.58988	
82.22176	4612.733		39.83129	
82.27587	4615.049		40.04029	
82.32997	4617.415		40.215	
82.38408	4619.831		40.35373	
82.43819	4622.296		40.45487	
82.49229	4624.801		40.51699	
82.54639	4627.344		40.53882	
82.6005	4629.913		40.51926	
82.65461	4632.5		40.45741	
82.70872	4635.086		40.35255	
82.76282	4637.667		40.20415	
82.81693	4640.228		40.01181	
82.87103	4642.761		39.77533	
82.92513	4645.258		39.49463	
82.97924	4647.724		39.16968	
83.03335	4650.165		38.80062	
83.08746	4652.599		38.38763	
83.14156	4655.034		37.93104	
83.19566	4657.483		37.43106	
83.24977	4659.946		36.88811	
83.30388	4662.424		36.30264	
83.35798	4664.902		35.67515	
83.41209	4667.377		35.00597	
83.46619	4669.846		34.29566	
83.5203	4672.315		33.54471	
83.5744	4674.769		32.75368	
83.62851	4677.193		31.92284	
83.68262	4679.563		31.05272	
83.73672	4681.871		30.14392	
83.79082	4684.104		29.19655	
83.84493	4686.263		28.21111	
83.89904	4688.343		27.18795	
83.95314	4690.355		26.12764	
84.00725	4692.296		25.03032	
84.06136	4694.153		23.89674	
84.11546	4695.899		22.72755	
84.16956	4697.522		21.52376	
84.22367	4699.016		20.286	
84.27778	4700.391		19.01552	
84.33188	4701.644		17.71372	
84.38599	4702.783		16.38152	
84.44009	4703.803		15.02048	
84.4942	4704.716		13.63208	
84.5483	4705.524		12.21806	
84.60241	4706.238		10.77968	
84.65652	4706.862		9.318931	
84.71062	4707.413		7.837684	
84.76472	4707.896		6.338114	
84.81883	4708.32		4.821796	
84.87294	4708.675		3.290961	
84.92704	4708.948		1.747889	
84.98115	4709.119		0.1942434	
85.03526	4709.183		-1.367652	
85.08936	4709.128		-2.93569	
85.14346	4708.953		-4.507546	
85.19757	4708.666		-6.081589	
85.25168	4708.275		-7.655575	
85.30579	4707.775		-9.227551	
85.35989	4707.163		-10.79539	
85.41399	4706.431		-12.35766	
85.4681	4705.582		-13.9123	
85.5222	4704.62		-15.4573	
85.57631	4703.55		-16.99133	
85.63042	4702.375		-18.51251	
85.68452	4701.091		-20.01929	
85.73862	4699.693		-21.51002	
85.79273	4698.165		-22.98388	
85.84684	4696.493		-24.43961	
85.90095	4694.676		-25.87636	
85.95505	4692.729		-27.29324	
86.00916	4690.659		-28.69013	
86.06326	4688.479		-30.06641	
86.11736	4686.207		-31.42158	
86.17147	4683.865		-32.75576	
86.22558	4681.475		-34.06851	
86.27969	4679.06		-35.35958	
86.33379	4676.623		-36.6286	
86.38789	4674.162		-37.87571	
86.442	4671.669		-39.10053	
86.49611	4669.141		-40.30286	
86.55021	4666.564		-41.48235	
86.60432	4663.936		-42.63906	
86.65842	4661.248		-43.77254	
86.71253	4658.505		-44.88247	
86.76663	4655.703		-45.96839	
86.82074	4652.852		-47.03032	
86.87485	4649.95		-48.0678	
86.92895	4646.997		-49.08037	
86.98306	4643.986		-50.06801	
87.03716	4640.919		-51.03033	
87.09127	4637.783		-51.96715	
87.14537	4634.596		-52.87826	
87.19948	4631.375		-53.76389	
87.25359	4628.148		-54.62399	
87.30769	4624.93		-55.45868	
87.36179	4621.732		-56.268	
87.4159	4618.546		-57.05231	
87.47001	4615.375		-57.81163	
87.52411	4612.203		-58.54604	
87.57822	4609.019		-59.25594	
87.63232	4605.805		-59.94149	
87.68643	4602.56		-60.60303	
87.74053	4599.272		-61.24089	
87.79464	4595.94		-61.85581	
87.84875	4592.56		-62.44835	
87.90285	4589.151		-63.01927	
87.95695	4585.718		-63.56939	
88.01106	4582.269		-64.09987	
88.06517	4578.808		-64.61173	
88.11927	4575.333		-65.10612	
88.17338	4571.83		-65.58443	
88.22749	4568.292		-66.04789	
88.28159	4564.702		-66.49786	
88.33569	4561.044		-66.93563	
88.3898	4557.291		-67.36266	
88.44391	4553.436		-67.78012	
88.49802	4549.476		-68.18916	
88.55212	4545.429		-68.59077	
88.60622	4541.301		-68.98595	
88.66033	4537.11		-69.37539	
88.71443	4532.875		-69.75969	
88.76854	4528.629		-70.13951	
88.82265	4524.408		-70.51522	
88.87675	4520.237		-70.88712	
88.93085	4516.123		-71.25536	
88.98496	4512.066		-71.62019	
89.03907	4508.046		-71.98164	
89.09318	4504.047		-72.33971	
89.14728	4500.048		-72.69436	
89.20139	4496.034		-73.04556	
89.25549	4491.995		-73.39315	
89.30959	4487.931		-73.73687	
89.3637	4483.842		-74.07658	
89.41781	4479.748		-74.41191	
89.47192	4475.67		-74.74253	
89.52602	4471.62		-75.06797	
89.58012	4467.603		-75.38788	
89.63423	4463.631		-75.70173	
89.68834	4459.703		-76.00907	
89.74244	4455.81		-76.30943	
89.79655	4451.927		-76.60249	
89.85065	4448.031		-76.88783	
89.90476	4444.096		-77.16512	
89.95886	4440.104		-77.43403	
90.01297	4436.047		-77.69442	
90.06708	4431.921		-77.94618	
90.12118	4427.732		-78.18934	
90.17529	4423.497		-78.42413	
90.22939	4419.246		-78.65089	
90.2835	4415.002		-78.87011	
90.3376	4410.78		-79.08236	
90.39171	4406.57		-79.28838	
90.44582	4402.364		-79.4889	
90.49992	4398.149		-79.68476	
90.55402	4393.919		-79.87677	
90.60813	4389.653		-80.06583	
90.66224	4385.341		-80.25272	
90.71634	4380.969		-80.43821	
90.77045	4376.527		-80.62306	
90.82455	4372.009		-80.80788	
90.87866	4367.422		-80.9932	
90.93276	4362.782		-81.17938	
90.98687	4358.114		-81.36681	
91.04098	4353.434		-81.55571	
91.09509	4348.764		-81.74628	
91.14919	4344.118		-81.93864	
91.20329	4339.504		-82.1329	
91.2574	4334.909		-82.32904	
91.3115	4330.316		-82.52703	
91.36561	4325.705		-82.72693	
91.41972	4321.069		-82.9287	
91.47382	4316.401		-83.13232	
91.52792	4311.705		-83.33768	
91.58203	4306.978		-83.54469	
91.63614	4302.235		-83.75307	
91.69025	4297.49		-83.96257	
91.74435	4292.773		-84.17282	
91.79845	4288.096		-84.38353	
91.85256	4283.471		-84.59428	
91.90666	4278.902		-84.80464	
91.96077	4274.394		-85.01424	
92.01488	4269.935		-85.22266	
92.06898	4265.52		-85.42947	
92.12309	4261.134		-85.63425	
92.17719	4256.756		-85.83666	
92.2313	4252.362		-86.03634	
92.28541	4247.942		-86.23299	
92.33951	4243.489		-86.4264	
92.39362	4239.003		-86.61648	
92.44772	4234.483		-86.81859	
92.50182	4229.935		-87.01698	
92.55593	4225.351		-87.21159	
92.61004	4220.736		-87.40275	
92.66415	4216.095		-87.59097	
92.71825	4211.437		-87.77679	
92.77235	4206.753		-87.9608	
92.82646	4202.046		-88.14342	
92.88057	4197.313		-88.32505	
92.93467	4192.561		-88.50597	
92.98878	4187.788		-88.68649	
93.04288	4182.993		-88.8668	
93.09698	4178.172		-89.04707	
93.15109	4173.333		-89.22749	
93.2052	4168.475		-89.40816	
93.25931	4163.604		-89.58922	
93.31341	4158.718		-89.7707	
93.36752	4153.828		-89.95274	
93.42162	4148.938		-90.13538	
93.47573	4144.06		-90.31865	
93.52983	4139.175		-90.50259	
93.58394	4134.275		-90.68726	
93.63805	4129.355		-90.87267	
93.69215	4124.414		-91.05885	
93.74625	4119.459		-91.24577	
93.80036	4114.496		-91.43349	
93.85447	4109.505		-91.62199	
93.90857	4104.469		-91.81124	
93.96268	4099.361		-92.00128	
94.01678	4094.175		-92.19205	
94.07089	4088.927		-92.38351	
94.12499	4083.488		-92.57561	
94.1791	4078.164		-92.76834	
94.23321	4072.923		-92.96163	
94.28732	4067.732		-93.15544	
94.34142	4062.569		-93.34969	
94.39552	4057.419		-93.54439	
94.44963	4052.272		-93.73945	
94.50373	4047.122		-93.93481	
94.55784	4041.964		-94.13046	
94.61195	4036.796		-94.32635	
94.66605	4031.617		-94.52243	
94.72015	4026.425		-94.71863	
94.77426	4021.22		-94.91497	
94.82837	4016.005		-95.11139	
94.88248	4010.781		-95.30785	
94.93658	4005.556		-95.50432	
94.99068	4000.331		-95.70081	
