T[Â°C]	330nm [counts / mm]	S.D.	First derivative	S.D. of first derivative
20.00094	3596.743		-53.23367	
20.05489	3593.714		-53.14726	
20.10884	3590.685		-53.06193	
20.16279	3587.659		-52.9777	
20.21674	3584.635		-52.89459	
20.27069	3581.614		-52.81263	
20.32464	3578.596		-52.73182	
20.37859	3575.582		-52.65219	
20.43254	3572.572		-52.57375	
20.48649	3569.565		-52.4965	
20.54045	3566.562		-52.42043	
20.59439	3563.56		-52.34556	
20.64835	3560.56		-52.27185	
20.7023	3557.558		-52.1993	
20.75625	3554.551		-52.12789	
20.8102	3551.537		-52.05758	
20.86415	3548.51		-51.98833	
20.9181	3545.466		-51.9201	
20.97205	3542.405		-51.85284	
21.026	3539.459		-51.78649	
21.07995	3536.548		-51.72096	
21.1339	3533.675		-51.65618	
21.18785	3530.851		-51.59206	
21.2418	3528.082		-51.5285	
21.29575	3525.366		-51.46538	
21.3497	3522.698		-51.4026	
21.40365	3520.079		-51.34003	
21.4576	3517.506		-51.27756	
21.51155	3514.977		-51.21503	
21.5655	3512.491		-51.15234	
21.61945	3510.045		-51.08933	
21.6734	3507.636		-51.02589	
21.72735	3505.257		-50.96188	
21.7813	3502.898		-50.89718	
21.83525	3500.549		-50.83166	
21.8892	3498.205		-50.7652	
21.94315	3495.864		-50.69767	
21.9971	3493.516		-50.62897	
22.05105	3491.151		-50.559	
22.105	3488.753		-50.48768	
22.15895	3486.311		-50.41497	
22.2129	3483.813		-50.34091	
22.26686	3481.251		-50.26562	
22.3208	3478.63		-50.18939	
22.37476	3475.956		-50.11279	
22.42871	3473.235		-50.03678	
22.48266	3470.467		-49.96285	
22.53661	3467.655		-49.89309	
22.59056	3464.798		-49.83	
22.64451	3461.894		-49.77792	
22.69846	3458.948		-49.72815	
22.75241	3455.97		-49.6809	
22.80636	3452.976		-49.63634	
22.86031	3449.985		-49.59462	
22.91426	3447.015		-49.55579	
22.96821	3444.075		-49.51992	
23.02216	3441.161		-49.48694	
23.07611	3438.266		-49.4568	
23.13006	3435.389		-49.42933	
23.18401	3432.531		-49.40434	
23.23796	3429.696		-49.3815	
23.29191	3426.885		-49.36047	
23.34586	3424.1		-49.34081	
23.39981	3421.342		-49.32201	
23.45376	3418.605		-49.30352	
23.50771	3415.891		-49.28474	
23.56166	3413.201		-49.26505	
23.61561	3410.538		-49.24385	
23.66956	3407.896		-49.22054	
23.72351	3405.273		-49.19464	
23.77746	3402.672		-49.16574	
23.83141	3400.09		-49.13351	
23.88536	3397.515		-49.0977	
23.93931	3394.938		-49.05817	
23.99327	3392.348		-49.01489	
24.04721	3389.744		-48.96788	
24.10117	3387.129		-48.91726	
24.15512	3384.508		-48.86324	
24.20907	3381.887		-48.8061	
24.26302	3379.267		-48.7462	
24.31697	3376.648		-48.68394	
24.37092	3374.037		-48.61985	
24.42487	3371.437		-48.55447	
24.47882	3368.858		-48.4884	
24.53277	3366.303		-48.42228	
24.58672	3363.776		-48.35673	
24.64067	3361.282		-48.29235	
24.69462	3358.82		-48.22976	
24.74857	3356.379		-48.16949	
24.80252	3353.945		-48.11207	
24.85647	3351.509		-48.05797	
24.91042	3349.063		-48.00763	
24.96437	3346.604		-47.96138	
25.01832	3344.123		-47.91951	
25.07227	3341.619		-47.88224	
25.12622	3339.093		-47.84976	
25.18017	3336.544		-47.8222	
25.23412	3333.975		-47.79964	
25.28807	3331.391		-47.7821	
25.34202	3328.804		-47.76951	
25.39597	3326.22		-47.7617	
25.44992	3323.649		-47.75838	
25.50387	3321.098		-47.75917	
25.55782	3318.573		-47.76358	
25.61177	3316.062		-47.77107	
25.66572	3313.55		-47.78109	
25.71968	3311.026		-47.79306	
25.77362	3308.477		-47.80641	
25.82758	3305.895		-47.82059	
25.88153	3303.275		-47.83505	
25.93548	3300.617		-47.84926	
25.98943	3297.932		-47.86271	
26.04338	3295.234		-47.87493	
26.09733	3292.54		-47.88551	
26.15128	3289.871		-47.89409	
26.20523	3287.243		-47.90041	
26.25918	3284.661		-47.90424	
26.31313	3282.121		-47.90548	
26.36708	3279.613		-47.90405	
26.42103	3277.129		-47.90001	
26.47498	3274.657		-47.89344	
26.52893	3272.181		-47.88451	
26.58288	3269.69		-47.87336	
26.63683	3267.178		-47.86014	
26.69078	3264.639		-47.84497	
26.74473	3262.07		-47.82795	
26.79868	3259.468		-47.80912	
26.85263	3256.83		-47.78857	
26.90658	3254.156		-47.76639	
26.96053	3251.445		-47.74269	
27.01448	3248.703		-47.71761	
27.06843	3245.942		-47.69125	
27.12238	3243.178		-47.66377	
27.17633	3240.427		-47.63531	
27.23028	3237.7		-47.60597	
27.28423	3235.003		-47.57583	
27.33818	3232.331		-47.54492	
27.39213	3229.669		-47.51323	
27.44608	3227.001		-47.4807	
27.50003	3224.316		-47.44727	
27.55399	3221.611		-47.41289	
27.60793	3218.892		-47.37752	
27.66189	3216.17		-47.34118	
27.71584	3213.456		-47.30394	
27.76979	3210.762		-47.26586	
27.82374	3208.105		-47.22704	
27.87769	3205.501		-47.18754	
27.93164	3202.967		-47.14744	
27.98559	3200.51		-47.10679	
28.03954	3198.13		-47.06562	
28.09349	3195.813		-47.02397	
28.14744	3193.543		-46.98189	
28.20139	3191.301		-46.9394	
28.25534	3189.063		-46.89655	
28.30929	3186.804		-46.85334	
28.36324	3184.51		-46.80984	
28.41719	3182.169		-46.76611	
28.47114	3179.78		-46.72225	
28.52509	3177.344		-46.67843	
28.57904	3174.87		-46.63485	
28.63299	3172.37		-46.59171	
28.68694	3169.849		-46.54922	
28.74089	3167.315		-46.50756	
28.79484	3164.784		-46.4669	
28.84879	3162.274		-46.42738	
28.90274	3159.787		-46.38919	
28.95669	3157.314		-46.35251	
29.01064	3154.836		-46.3175	
29.06459	3152.333		-46.28433	
29.11854	3149.791		-46.2531	
29.17249	3147.213		-46.22389	
29.22644	3144.609		-46.1967	
29.2804	3141.996		-46.17149	
29.33434	3139.392		-46.14816	
29.3883	3136.805		-46.12659	
29.44225	3134.238		-46.10669	
29.4962	3131.698		-46.08836	
29.55015	3129.191		-46.07156	
29.6041	3126.728		-46.05629	
29.65805	3124.308		-46.04261	
29.712	3121.924		-46.03058	
29.76595	3119.566		-46.02026	
29.8199	3117.223		-46.01168	
29.87385	3114.882		-46.00483	
29.9278	3112.531		-45.99966	
29.98175	3110.163		-45.9961	
30.0357	3107.771		-45.99407	
30.08965	3105.352		-45.99348	
30.1436	3102.901		-45.99419	
30.19755	3100.41		-45.99606	
30.2515	3097.875		-45.99889	
30.30545	3095.296		-46.00249	
30.3594	3092.687		-46.00665	
30.41335	3090.063		-46.0112	
30.4673	3087.439		-46.016	
30.52125	3084.83		-46.02094	
30.5752	3082.246		-46.02597	
30.62915	3079.686		-46.03104	
30.6831	3077.142		-46.03611	
30.73705	3074.604		-46.04111	
30.791	3072.074		-46.04601	
30.84495	3069.55		-46.05075	
30.8989	3067.032		-46.05532	
30.95285	3064.517		-46.05975	
31.00681	3062.001		-46.06407	
31.06075	3059.479		-46.06831	
31.11471	3056.946		-46.07246	
31.16866	3054.41		-46.07643	
31.22261	3051.886		-46.08011	
31.27656	3049.398		-46.08334	
31.33051	3046.966		-46.08598	
31.38446	3044.596		-46.0879	
31.43841	3042.283		-46.089	
31.49236	3040.013		-46.08918	
31.54631	3037.771		-46.08837	
31.60026	3035.539		-46.08655	
31.65421	3033.296		-46.0837	
31.70816	3031.027		-46.07984	
31.76211	3028.718		-46.07499	
31.81606	3026.363		-46.06915	
31.87001	3023.95		-46.06231	
31.92396	3021.476		-46.05444	
31.97791	3018.938		-46.04549	
32.03186	3016.347		-46.03542	
32.08581	3013.717		-46.02424	
32.13976	3011.069		-46.01193	
32.19371	3008.414		-45.99851	
32.24766	3005.76		-45.98401	
32.30161	3003.114		-45.96847	
32.35556	3000.487		-45.95195	
32.40951	2997.884		-45.93449	
32.46346	2995.302		-45.91615	
32.51741	2992.74		-45.89697	
32.57136	2990.191		-45.87697	
32.62531	2987.653		-45.85614	
32.67926	2985.121		-45.83438	
32.73322	2982.589		-45.8116	
32.78716	2980.061		-45.78768	
32.84111	2977.541		-45.76249	
32.89507	2975.037		-45.73597	
32.94902	2972.562		-45.70808	
33.00296	2970.123		-45.67884	
33.05692	2967.712		-45.64826	
33.11087	2965.318		-45.61638	
33.16482	2962.929		-45.58321	
33.21877	2960.539		-45.54876	
33.27272	2958.147		-45.51303	
33.32667	2955.753		-45.47607	
33.38062	2953.354		-45.43793	
33.43457	2950.945		-45.39863	
33.48852	2948.518		-45.35818	
33.54247	2946.067		-45.31659	
33.59642	2943.582		-45.2738	
33.65037	2941.06		-45.22979	
33.70432	2938.512		-45.18459	
33.75827	2935.956		-45.13825	
33.81222	2933.402		-45.09085	
33.86617	2930.861		-45.04253	
33.92012	2928.333		-44.99337	
33.97407	2925.822		-44.94353	
34.02802	2923.323		-44.89318	
34.08197	2920.836		-44.84253	
34.13592	2918.362		-44.79181	
34.18987	2915.9		-44.74128	
34.24382	2913.452		-44.69124	
34.29777	2911.029		-44.64198	
34.35172	2908.638		-44.59377	
34.40567	2906.283		-44.54687	
34.45963	2903.965		-44.50148	
34.51357	2901.683		-44.45776	
34.56752	2899.431		-44.41581	
34.62148	2897.2		-44.37572	
34.67543	2894.978		-44.33748	
34.72937	2892.751		-44.30108	
34.78333	2890.507		-44.26646	
34.83728	2888.235		-44.23351	
34.89123	2885.937		-44.20213	
34.94518	2883.618		-44.17218	
34.99913	2881.28		-44.14353	
35.05308	2878.924		-44.11605	
35.10703	2876.545		-44.08965	
35.16098	2874.144		-44.06424	
35.21493	2871.733		-44.03975	
35.26888	2869.327		-44.0161	
35.32283	2866.938		-43.99322	
35.37678	2864.573		-43.97103	
35.43073	2862.236		-43.94946	
35.48468	2859.922		-43.92842	
35.53863	2857.61		-43.90777	
35.59258	2855.277		-43.88733	
35.64653	2852.913		-43.86687	
35.70048	2850.515		-43.84619	
35.75443	2848.09		-43.82508	
35.80838	2845.646		-43.80336	
35.86233	2843.195		-43.78085	
35.91628	2840.745		-43.75739	
35.97023	2838.308		-43.73282	
36.02418	2835.894		-43.70706	
36.07813	2833.51		-43.68001	
36.13208	2831.166		-43.65163	
36.18604	2828.862		-43.62194	
36.23998	2826.59		-43.59097	
36.29393	2824.336		-43.55879	
36.34789	2822.083		-43.52547	
36.40184	2819.82		-43.49106	
36.45578	2817.538		-43.45566	
36.50974	2815.232		-43.41935	
36.56369	2812.892		-43.38223	
36.61764	2810.515		-43.34441	
36.67159	2808.107		-43.30604	
36.72554	2805.672		-43.26728	
36.77949	2803.216		-43.2283	
36.83344	2800.751		-43.18929	
36.88739	2798.288		-43.15045	
36.94134	2795.837		-43.11191	
36.99529	2793.403		-43.07385	
37.04924	2790.986		-43.0364	
37.10319	2788.586		-42.99973	
37.15714	2786.194		-42.96395	
37.21109	2783.802		-42.92918	
37.26504	2781.405		-42.89551	
37.31899	2778.997		-42.86304	
37.37294	2776.583		-42.83182	
37.42689	2774.176		-42.80194	
37.48084	2771.788		-42.77349	
37.53479	2769.427		-42.74656	
37.58874	2767.095		-42.72118	
37.64269	2764.785		-42.69737	
37.69664	2762.496		-42.67514	
37.75059	2760.234		-42.65445	
37.80454	2758.005		-42.63524	
37.85849	2755.816		-42.61742	
37.91245	2753.663		-42.60083	
37.96639	2751.531		-42.5853	
38.02034	2749.409		-42.57056	
38.0743	2747.284		-42.55631	
38.12825	2745.158		-42.54222	
38.18219	2743.034		-42.52797	
38.23615	2740.912		-42.51322	
38.2901	2738.786		-42.49767	
38.34405	2736.654		-42.48102	
38.39799	2734.515		-42.46299	
38.45195	2732.366		-42.44332	
38.5059	2730.196		-42.4218	
38.55985	2727.996		-42.39828	
38.6138	2725.765		-42.37265	
38.66775	2723.507		-42.34488	
38.7217	2721.226		-42.31496	
38.77565	2718.929		-42.28293	
38.8296	2716.624		-42.24888	
38.88355	2714.313		-42.21292	
38.9375	2711.997		-42.17522	
38.99145	2709.675		-42.13593	
39.0454	2707.349		-42.09522	
39.09935	2705.021		-42.05324	
39.1533	2702.696		-42.01016	
39.20725	2700.372		-41.96614	
39.2612	2698.05		-41.92135	
39.31515	2695.726		-41.87597	
39.3691	2693.394		-41.83018	
39.42305	2691.052		-41.78415	
39.477	2688.706		-41.73805	
39.53095	2686.358		-41.69204	
39.5849	2684.008		-41.64632	
39.63885	2681.653		-41.6011	
39.6928	2679.29		-41.55661	
39.74675	2676.917		-41.51307	
39.8007	2674.537		-41.4707	
39.85466	2672.159		-41.42972	
39.9086	2669.792		-41.39034	
39.96255	2667.437		-41.35275	
40.01651	2665.092		-41.31707	
40.07046	2662.747		-41.28333	
40.1244	2660.399		-41.2515	
40.17836	2658.049		-41.22149	
40.23231	2655.7		-41.19318	
40.28626	2653.355		-41.16645	
40.34021	2651.024		-41.14115	
40.39416	2648.719		-41.11711	
40.44811	2646.445		-41.09412	
40.50206	2644.204		-41.07198	
40.55601	2641.995		-41.05051	
40.60996	2639.817		-41.02957	
40.66391	2637.669		-41.00911	
40.71786	2635.547		-40.98912	
40.77181	2633.453		-40.96965	
40.82576	2631.381		-40.95076	
40.87971	2629.329		-40.93256	
40.93366	2627.298		-40.91517	
40.98761	2625.292		-40.8987	
41.04156	2623.312		-40.88325	
41.09551	2621.352		-40.86893	
41.14946	2619.403		-40.85588	
41.20341	2617.455		-40.84425	
41.25736	2615.505		-40.83419	
41.31131	2613.551		-40.82587	
41.36526	2611.589		-40.81948	
41.41921	2609.615		-40.81515	
41.47316	2607.628		-40.81297	
41.52711	2605.622		-40.81301	
41.58107	2603.594		-40.81533	
41.63501	2601.538		-40.81996	
41.68896	2599.45		-40.82691	
41.74292	2597.323		-40.83613	
41.79687	2595.152		-40.84755	
41.85081	2592.936		-40.86106	
41.90477	2590.676		-40.87653	
41.95872	2588.381		-40.89381	
42.01267	2586.059		-40.91275	
42.06662	2583.723		-40.93314	
42.12057	2581.376		-40.95472	
42.17452	2579.021		-40.97721	
42.22847	2576.655		-41.00028	
42.28242	2574.284		-41.02359	
42.33637	2571.919		-41.04678	
42.39032	2569.567		-41.06946	
42.44427	2567.222		-41.0912	
42.49822	2564.88		-41.11158	
42.55217	2562.542		-41.13017	
42.60612	2560.214		-41.14658	
42.66007	2557.904		-41.16046	
42.71402	2555.611		-41.1715	
42.76797	2553.336		-41.17944	
42.82192	2551.077		-41.18409	
42.87587	2548.824		-41.18528	
42.92982	2546.577		-41.1829	
42.98377	2544.34		-41.17685	
43.03772	2542.113		-41.16708	
43.09167	2539.891		-41.15357	
43.14562	2537.667		-41.13634	
43.19957	2535.433		-41.11547	
43.25352	2533.184		-41.09106	
43.30748	2530.912		-41.06328	
43.36142	2528.61		-41.03232	
43.41537	2526.275		-40.99839	
43.46933	2523.914		-40.96172	
43.52328	2521.541		-40.92259	
43.57722	2519.168		-40.88124	
43.63118	2516.803		-40.83795	
43.68513	2514.455		-40.79294	
43.73908	2512.128		-40.74645	
43.79303	2509.822		-40.69868	
43.84698	2507.532		-40.64984	
43.90093	2505.252		-40.60012	
43.95488	2502.981		-40.54972	
44.00883	2500.726		-40.49887	
44.06278	2498.496		-40.44775	
44.11673	2496.292		-40.39654	
44.17068	2494.11		-40.34538	
44.22463	2491.952		-40.29434	
44.27858	2489.831		-40.24348	
44.33253	2487.76		-40.19282	
44.38648	2485.741		-40.14237	
44.44043	2483.767		-40.09214	
44.49438	2481.826		-40.04215	
44.54833	2479.907		-39.99239	
44.60228	2478.004		-39.94289	
44.65623	2476.106		-39.89363	
44.71018	2474.208		-39.84463	
44.76413	2472.307		-39.79589	
44.81808	2470.392		-39.74747	
44.87203	2468.452		-39.69941	
44.92598	2466.483		-39.65175	
44.97993	2464.48		-39.60458	
45.03388	2462.445		-39.55796	
45.08783	2460.375		-39.51199	
45.14178	2458.275		-39.46674	
45.19574	2456.149		-39.42229	
45.24968	2454.004		-39.37873	
45.30363	2451.842		-39.33617	
45.35759	2449.662		-39.29473	
45.41154	2447.461		-39.25455	
45.46548	2445.237		-39.21576	
45.51944	2442.996		-39.17849	
45.57339	2440.74		-39.14289	
45.62734	2438.48		-39.10901	
45.68129	2436.228		-39.07688	
45.73524	2433.994		-39.04648	
45.78919	2431.781		-39.0178	
45.84314	2429.584		-38.99078	
45.89709	2427.399		-38.96542	
45.95104	2425.226		-38.9417	
46.00499	2423.067		-38.9196	
46.05894	2420.926		-38.89914	
46.11289	2418.798		-38.88027	
46.16684	2416.68		-38.86293	
46.22079	2414.569		-38.84702	
46.27474	2412.469		-38.83238	
46.32869	2410.379		-38.81885	
46.38264	2408.301		-38.80623	
46.43659	2406.232		-38.79435	
46.49054	2404.164		-38.78302	
46.54449	2402.085		-38.77211	
46.59844	2399.988		-38.76148	
46.65239	2397.869		-38.75101	
46.70634	2395.734		-38.7406	
46.76029	2393.588		-38.73016	
46.81424	2391.443		-38.71965	
46.86819	2389.304		-38.70902	
46.92215	2387.176		-38.69822	
46.97609	2385.06		-38.68723	
47.03004	2382.957		-38.67601	
47.084	2380.865		-38.66456	
47.13795	2378.784		-38.65289	
47.19189	2376.711		-38.64106	
47.24585	2374.646		-38.62913	
47.2998	2372.587		-38.61724	
47.35375	2370.537		-38.60552	
47.4077	2368.499		-38.59413	
47.46165	2366.476		-38.58323	
47.5156	2364.467		-38.573	
47.56955	2362.47		-38.56364	
47.6235	2360.485		-38.55531	
47.67745	2358.518		-38.54817	
47.7314	2356.576		-38.54235	
47.78535	2354.656		-38.53799	
47.8393	2352.748		-38.53518	
47.89325	2350.839		-38.534	
47.9472	2348.92		-38.53453	
48.00115	2346.984		-38.53683	
48.0551	2345.022		-38.54093	
48.10905	2343.024		-38.54683	
48.163	2340.992		-38.5545	
48.21695	2338.931		-38.56386	
48.2709	2336.848		-38.57479	
48.32485	2334.753		-38.58708	
48.3788	2332.654		-38.60049	
48.43275	2330.551		-38.6147	
48.4867	2328.44		-38.6294	
48.54065	2326.318		-38.64422	
48.5946	2324.183		-38.65879	
48.64856	2322.038		-38.67275	
48.7025	2319.879		-38.68571	
48.75645	2317.705		-38.69729	
48.81041	2315.519		-38.70709	
48.86436	2313.33		-38.71472	
48.9183	2311.141		-38.71978	
48.97226	2308.956		-38.72188	
49.02621	2306.777		-38.72065	
49.08016	2304.605		-38.71573	
49.13411	2302.442		-38.70685	
49.18806	2300.286		-38.69381	
49.24201	2298.136		-38.67646	
49.29596	2295.994		-38.65476	
49.34991	2293.869		-38.62871	
49.40386	2291.766		-38.59834	
49.45781	2289.684		-38.56372	
49.51176	2287.619		-38.52498	
49.56571	2285.56		-38.4823	
49.61966	2283.499		-38.43592	
49.67361	2281.438		-38.38613	
49.72756	2279.378		-38.33329	
49.78151	2277.315		-38.2778	
49.83546	2275.242		-38.22011	
49.88941	2273.156		-38.16068	
49.94336	2271.057		-38.1	
49.99731	2268.946		-38.03857	
50.05126	2266.82		-37.97692	
50.10521	2264.666		-37.91556	
50.15916	2262.481		-37.855	
50.21311	2260.269		-37.79573	
50.26706	2258.042		-37.73819	
50.32101	2255.815		-37.68276	
50.37497	2253.6		-37.6297	
50.42891	2251.403		-37.57924	
50.48286	2249.226		-37.53151	
50.53682	2247.07		-37.48659	
50.59077	2244.936		-37.44452	
50.64471	2242.825		-37.4053	
50.69867	2240.735		-37.36885	
50.75262	2238.668		-37.33506	
50.80657	2236.628		-37.30379	
50.86052	2234.623		-37.27485	
50.91447	2232.655		-37.24798	
50.96842	2230.731		-37.22295	
51.02237	2228.859		-37.19947	
51.07632	2227.048		-37.17732	
51.13027	2225.29		-37.1563	
51.18422	2223.575		-37.13626	
51.23817	2221.889		-37.11709	
51.29212	2220.227		-37.09872	
51.34607	2218.578		-37.08113	
51.40002	2216.934		-37.06432	
51.45397	2215.281		-37.04831	
51.50792	2213.608		-37.03317	
51.56187	2211.908		-37.01897	
51.61582	2210.178		-37.00577	
51.66977	2208.413		-36.99365	
51.72372	2206.608		-36.98268	
51.77767	2204.756		-36.97292	
51.83162	2202.851		-36.96442	
51.88557	2200.89		-36.95728	
51.93952	2198.881		-36.95153	
51.99347	2196.84		-36.94722	
52.04742	2194.774		-36.94435	
52.10138	2192.686		-36.94292	
52.15532	2190.578		-36.9429	
52.20927	2188.449		-36.94422	
52.26323	2186.297		-36.94679	
52.31718	2184.119		-36.95045	
52.37112	2181.916		-36.955	
52.42508	2179.698		-36.96019	
52.47903	2177.477		-36.96574	
52.53298	2175.263		-36.97134	
52.58693	2173.065		-36.9766	
52.64088	2170.882		-36.98114	
52.69483	2168.718		-36.98452	
52.74878	2166.576		-36.98632	
52.80273	2164.458		-36.98615	
52.85668	2162.37		-36.98361	
52.91063	2160.309		-36.97836	
52.96458	2158.278		-36.97007	
53.01853	2156.278		-36.95844	
53.07248	2154.304		-36.94326	
53.12643	2152.344		-36.92435	
53.18038	2150.385		-36.90163	
53.23433	2148.422		-36.8751	
53.28828	2146.456		-36.84481	
53.34223	2144.48		-36.81094	
53.39618	2142.494		-36.77371	
53.45013	2140.495		-36.73347	
53.50408	2138.482		-36.69064	
53.55803	2136.457		-36.64568	
53.61198	2134.42		-36.59912	
53.66593	2132.371		-36.55151	
53.71988	2130.313		-36.50335	
53.77383	2128.251		-36.45519	
53.82779	2126.185		-36.40759	
53.88173	2124.115		-36.36107	
53.93568	2122.042		-36.31616	
53.98964	2119.967		-36.27332	
54.04359	2117.886		-36.23299	
54.09753	2115.802		-36.19552	
54.15149	2113.72		-36.1612	
54.20544	2111.655		-36.13026	
54.25939	2109.621		-36.1029	
54.31334	2107.631		-36.07924	
54.36729	2105.691		-36.05937	
54.42124	2103.802		-36.04336	
54.47519	2101.963		-36.0312	
54.52914	2100.171		-36.02286	
54.58309	2098.424		-36.01822	
54.63704	2096.719		-36.01708	
54.69099	2095.05		-36.01918	
54.74494	2093.408		-36.02419	
54.79889	2091.781		-36.03179	
54.85284	2090.155		-36.04163	
54.90679	2088.521		-36.05338	
54.96074	2086.873		-36.0667	
55.01469	2085.209		-36.08131	
55.06864	2083.53		-36.0969	
55.12259	2081.836		-36.11317	
55.17654	2080.128		-36.12983	
55.23049	2078.406		-36.14663	
55.28444	2076.665		-36.16336	
55.33839	2074.892		-36.17989	
55.39234	2073.075		-36.19612	
55.44629	2071.205		-36.21202	
55.50024	2069.279		-36.2276	
55.5542	2067.301		-36.24294	
55.60814	2065.276		-36.25809	
55.66209	2063.205		-36.27313	
55.71605	2061.094		-36.28811	
55.77	2058.95		-36.30311	
55.82394	2056.78		-36.31819	
55.8779	2054.596		-36.33342	
55.93185	2052.414		-36.34882	
55.9858	2050.246		-36.36436	
56.03975	2048.093		-36.37999	
56.0937	2045.953		-36.39556	
56.14765	2043.824		-36.41086	
56.2016	2041.704		-36.42561	
56.25555	2039.588		-36.43953	
56.3095	2037.479		-36.4523	
56.36345	2035.375		-36.46362	
56.4174	2033.275		-36.47315	
56.47135	2031.176		-36.48059	
56.5253	2029.072		-36.48565	
56.57925	2026.963		-36.48801	
56.6332	2024.855		-36.48737	
56.68715	2022.758		-36.48346	
56.7411	2020.676		-36.47605	
56.79505	2018.612		-36.46495	
56.849	2016.558		-36.45001	
56.90295	2014.514		-36.43111	
56.9569	2012.475		-36.40817	
57.01085	2010.439		-36.3812	
57.0648	2008.405		-36.35023	
57.11875	2006.372		-36.31535	
57.1727	2004.346		-36.27664	
57.22665	2002.338		-36.23427	
57.28061	2000.358		-36.18842	
57.33455	1998.414		-36.13934	
57.3885	1996.502		-36.08731	
57.44246	1994.615		-36.03268	
57.49641	1992.742		-35.97585	
57.55035	1990.876		-35.91725	
57.60431	1989.011		-35.85732	
57.65826	1987.146		-35.79651	
57.7122	1985.284		-35.73528	
57.76616	1983.43		-35.67403	
57.82011	1981.589		-35.61317	
57.87406	1979.762		-35.5531	
57.92801	1977.948		-35.49416	
57.98196	1976.142		-35.43666	
58.03591	1974.334		-35.38087	
58.08986	1972.522		-35.32703	
58.14381	1970.703		-35.27533	
58.19776	1968.882		-35.22589	
58.25171	1967.067		-35.17883	
58.30566	1965.26		-35.13421	
58.35961	1963.459		-35.09206	
58.41356	1961.657		-35.05235	
58.46751	1959.849		-35.01503	
58.52146	1958.035		-34.97999	
58.57541	1956.214		-34.94704	
58.62936	1954.392		-34.916	
58.68331	1952.572		-34.88666	
58.73726	1950.763		-34.85887	
58.79121	1948.964		-34.83246	
58.84516	1947.169		-34.80729	
58.89911	1945.373		-34.78321	
58.95306	1943.57		-34.76007	
59.00701	1941.748		-34.7377	
59.06096	1939.904		-34.71596	
59.11491	1938.038		-34.69471	
59.16887	1936.151		-34.67379	
59.22281	1934.245		-34.65305	
59.27676	1932.322		-34.63234	
59.33072	1930.391		-34.61148	
59.38467	1928.458		-34.59032	
59.43861	1926.529		-34.56873	
59.49257	1924.606		-34.54657	
59.54652	1922.682		-34.52378	
59.60047	1920.748		-34.50026	
59.65442	1918.8		-34.47596	
59.70837	1916.837		-34.4508	
59.76232	1914.867		-34.42472	
59.81627	1912.891		-34.39759	
59.87022	1910.912		-34.36931	
59.92417	1908.934		-34.33971	
59.97812	1906.963		-34.30862	
60.03207	1904.995		-34.27589	
60.08602	1903.028		-34.24142	
60.13997	1901.061		-34.20506	
60.19392	1899.102		-34.16677	
60.24787	1897.166		-34.12648	
60.30182	1895.265		-34.0842	
60.35577	1893.399		-34.03988	
60.40972	1891.563		-33.99353	
60.46367	1889.745		-33.94512	
60.51762	1887.937		-33.89463	
60.57157	1886.131		-33.84206	
60.62552	1884.321		-33.78738	
60.67947	1882.502		-33.73059	
60.73342	1880.676		-33.67173	
60.78737	1878.844		-33.61082	
60.84132	1877.01		-33.5479	
60.89528	1875.178		-33.48301	
60.94922	1873.35		-33.41616	
61.00317	1871.53		-33.34735	
61.05713	1869.725		-33.27661	
61.11108	1867.947		-33.20392	
61.16502	1866.2		-33.12927	
61.21898	1864.483		-33.05263	
61.27293	1862.788		-32.97395	
61.32688	1861.102		-32.89317	
61.38083	1859.415		-32.81024	
61.43478	1857.723		-32.72506	
61.48873	1856.027		-32.63757	
61.54268	1854.324		-32.54769	
61.59663	1852.611		-32.45537	
61.65058	1850.885		-32.36055	
61.70453	1849.151		-32.26322	
61.75848	1847.419		-32.16337	
61.81243	1845.695		-32.06102	
61.86638	1843.982		-31.95619	
61.92033	1842.28		-31.8489	
61.97428	1840.59		-31.73923	
62.02823	1838.91		-31.62724	
62.08218	1837.234		-31.51296	
62.13613	1835.555		-31.39648	
62.19008	1833.863		-31.27783	
62.24403	1832.154		-31.15707	
62.29798	1830.434		-31.0342	
62.35193	1828.708		-30.90919	
62.40588	1826.983		-30.78197	
62.45983	1825.259		-30.65245	
62.51378	1823.539		-30.52048	
62.56773	1821.823		-30.38589	
62.62169	1820.11		-30.24853	
62.67563	1818.403		-30.1082	
62.72958	1816.704		-29.96472	
62.78354	1815.014		-29.81788	
62.83749	1813.329		-29.66748	
62.89143	1811.65		-29.51329	
62.94538	1809.974		-29.35499	
62.99934	1808.295		-29.19231	
63.05329	1806.609		-29.02488	
63.10723	1804.917		-28.8523	
63.16119	1803.225		-28.6741	
63.21514	1801.542		-28.4898	
63.26909	1799.877		-28.29889	
63.32304	1798.235		-28.10082	
63.37699	1796.616		-27.89498	
63.43094	1795.014		-27.68077	
63.48489	1793.43		-27.45757	
63.53884	1791.865		-27.22473	
63.59279	1790.321		-26.98162	
63.64674	1788.8		-26.72762	
63.70069	1787.304		-26.4621	
63.75464	1785.838		-26.18447	
63.80859	1784.404		-25.89409	
63.86254	1783		-25.59041	
63.91649	1781.618		-25.27288	
63.97044	1780.256		-24.94106	
64.02439	1778.915		-24.5945	
64.07834	1777.601		-24.23287	
64.13229	1776.317		-23.85574	
64.18624	1775.058		-23.46292	
64.2402	1773.818		-23.05395	
64.29414	1772.589		-22.62863	
64.34809	1771.364		-22.18652	
64.40205	1770.135		-21.72713	
64.45599	1768.897		-21.25015	
64.50994	1767.646		-20.75504	
64.5639	1766.376		-20.24122	
64.61784	1765.09		-19.70833	
64.6718	1763.793		-19.15571	
64.72575	1762.491		-18.58301	
64.77969	1761.194		-17.9896	
64.83365	1759.911		-17.37483	
64.8876	1758.653		-16.73831	
64.94154	1757.43		-16.07929	
64.9955	1756.249		-15.397	
65.04945	1755.113		-14.69089	
65.1034	1754.025		-13.95993	
65.15735	1752.98		-13.2035	
65.2113	1751.978		-12.42054	
65.26525	1751.017		-11.60998	
65.3192	1750.1		-10.77108	
65.37315	1749.229		-9.902655	
65.4271	1748.399		-9.00351	
65.48105	1747.607		-8.0728	
65.535	1746.855		-7.109105	
65.58895	1746.149		-6.111593	
65.6429	1745.507		-5.078908	
65.69685	1744.941		-4.009706	
65.7508	1744.456		-2.903143	
65.80475	1744.055		-1.75782	
65.8587	1743.735		-0.572385	
65.91265	1743.49		0.6540195	
65.96661	1743.308		1.922937	
66.02055	1743.177		3.23507	
66.0745	1743.087		4.591727	
66.12846	1743.029		5.994123	
66.1824	1743.002		7.442783	
66.23635	1743.009		8.938935	
66.29031	1743.059		10.48374	
66.34425	1743.168		12.07772	
66.39821	1743.348		13.72231	
66.45216	1743.613		15.41796	
66.5061	1743.969		17.16593	
66.56006	1744.418		18.96739	
66.61401	1744.954		20.82268	
66.66795	1745.577		22.733	
66.72191	1746.286		24.69948	
66.77586	1747.093		26.72242	
66.82981	1748.006		28.80327	
66.88376	1749.034		30.94231	
66.93771	1750.178		33.14068	
66.99166	1751.442		35.39957	
67.04561	1752.82		37.71919	
67.09956	1754.312		40.10069	
67.15351	1755.916		42.54524	
67.20746	1757.63		45.05293	
67.26141	1759.455		47.62524	
67.31536	1761.403		50.26217	
67.36931	1763.486		52.96482	
67.42326	1765.719		55.73429	
67.47721	1768.105		58.57055	
67.53116	1770.645		61.47469	
67.58511	1773.343		64.44788	
67.63906	1776.207		67.48998	
67.69302	1779.243		70.60254	
67.74696	1782.448		73.78532	
67.80091	1785.821		77.03931	
67.85487	1789.36		80.36553	
67.90881	1793.062		83.76347	
67.96276	1796.932		87.23399	
68.01672	1800.977		90.77791	
68.07066	1805.2		94.3944	
68.12462	1809.609		98.08456	
68.17857	1814.209		101.8473	
68.23251	1819.007		105.6829	
68.28647	1824.01		109.5916	
68.34042	1829.221		113.572	
68.39436	1834.644		117.624	
68.44832	1840.291		121.7477	
68.50227	1846.174		125.9412	
68.55622	1852.308		130.2048	
68.61017	1858.693		134.5367	
68.66412	1865.322		138.9365	
68.71807	1872.192		143.4039	
68.77202	1879.302		147.9367	
68.82597	1886.657		152.5345	
68.87992	1894.264		157.1969	
68.93387	1902.134		161.9216	
68.98782	1910.284		166.7088	
69.04177	1918.724		171.5558	
69.09572	1927.466		176.4622	
69.14967	1936.516		181.4273	
69.20362	1945.867		186.4484	
69.25757	1955.511		191.5246	
69.31152	1965.441		196.6549	
69.36547	1975.653		201.8359	
69.41943	1986.153		207.067	
69.47337	1996.937		212.3444	
69.52732	2008.004		217.6663	
69.58128	2019.356		223.0304	
69.63522	2031		228.4322	
69.68917	2042.947		233.8687	
69.74313	2055.213		239.337	
69.79707	2067.803		244.8309	
69.85103	2080.735		250.3473	
69.90498	2094.009		255.8793	
69.95892	2107.636		261.4217	
70.01288	2121.62		266.9691	
70.06683	2135.961		272.513	
70.12077	2150.657		278.0467	
70.17473	2165.705		283.5629	
70.22868	2181.099		289.0513	
70.28262	2196.839		294.5036	
70.33658	2212.918		299.9108	
70.39053	2229.325		305.2611	
70.44448	2246.061		310.5455	
70.49843	2263.129		315.7513	
70.55238	2280.54		320.868	
70.60633	2298.302		325.8847	
70.66028	2316.406		330.7883	
70.71423	2334.851		335.5675	
70.76818	2353.635		340.2111	
70.82213	2372.747		344.7057	
70.87608	2392.18		349.0409	
70.93003	2411.919		353.2036	
70.98398	2431.958		357.1831	
71.03793	2452.303		360.9687	
71.09188	2472.953		364.5486	
71.14583	2493.925		367.9131	
71.19978	2515.225		371.0529	
71.25373	2536.845		373.958	
71.30769	2558.793		376.6206	
71.36163	2581.073		379.032	
71.41558	2603.691		381.1853	
71.46954	2626.655		383.0745	
71.52348	2649.955		384.6931	
71.57743	2673.592		386.0365	
71.63139	2697.567		387.1007	
71.68533	2721.876		387.8822	
71.73929	2746.518		388.3785	
71.79324	2771.468		388.588	
71.84718	2796.696		388.5097	
71.90114	2822.165		388.1434	
71.95509	2847.823		387.4897	
72.00903	2873.628		386.5499	
72.06299	2899.544		385.3255	
72.11694	2925.516		383.8194	
72.17089	2951.505		382.0342	
72.22484	2977.458		379.9739	
72.27879	3003.328		377.6425	
72.33274	3029.062		375.0439	
72.38669	3054.595		372.184	
72.44064	3079.872		369.0678	
72.49459	3104.841		365.7009	
72.54854	3129.45		362.0905	
72.60249	3153.656		358.2422	
72.65644	3177.395		354.1644	
72.71039	3200.626		349.864	
72.76434	3223.309		345.3485	
72.81829	3245.396		340.6275	
72.87224	3266.851		335.7092	
72.92619	3287.658		330.6021	
72.98014	3307.798		325.3172	
73.0341	3327.276		319.8631	
73.08804	3346.09		314.2515	
73.14199	3364.251		308.4924	
73.19595	3381.769		302.5959	
73.24989	3398.646		296.5749	
73.30384	3414.891		290.4401	
73.3578	3430.515		284.2025	
73.41174	3445.521		277.8757	
73.4657	3459.914		271.4704	
73.51965	3473.683		265.0006	
73.57359	3486.828		258.4782	
73.62755	3499.358		251.9147	
73.6815	3511.289		245.3249	
73.73544	3522.647		238.7204	
73.7894	3533.462		232.1133	
73.84335	3543.763		225.518	
73.8973	3553.583		218.9454	
73.95125	3562.948		212.4096	
74.0052	3571.892		205.9218	
74.05915	3580.439		199.4927	
74.1131	3588.597		193.1356	
74.16705	3596.377		186.8603	
74.221	3603.793		180.6762	
74.27495	3610.859		174.595	
74.3289	3617.594		168.6239	
74.38285	3624.006		162.7733	
74.4368	3630.108		157.0499	
74.49075	3635.917		151.4603	
74.5447	3641.445		146.0123	
74.59865	3646.71		140.7108	
74.6526	3651.74		135.5596	
74.70655	3656.574		130.5644	
74.76051	3661.24		125.7269	
74.81445	3665.753		121.0506	
74.8684	3670.122		116.5366	
74.92236	3674.363		112.185	
74.9763	3678.49		107.997	
75.03025	3682.516		103.9713	
75.08421	3686.446		100.1061	
75.13815	3690.282		96.40034	
75.19211	3694.028		92.85054	
75.24606	3697.683		89.45461	
75.3	3701.254		86.2085	
75.35396	3704.751		83.10784	
75.40791	3708.183		80.14919	
75.46185	3711.556		77.3274	
75.51581	3714.872		74.63712	
75.56976	3718.129		72.07382	
75.62371	3721.328		69.6313	
75.67766	3724.461		67.3046	
75.73161	3727.52		65.08765	
75.78556	3730.494		62.97446	
75.83951	3733.372		60.96	
75.89346	3736.147		59.03838	
75.94741	3738.829		57.20391	
76.00136	3741.427		55.45179	
76.05531	3743.945		53.77638	
76.10926	3746.377		52.17319	
76.16321	3748.723		50.63722	
76.21716	3750.982		49.16372	
76.27111	3753.16		47.7488	
76.32506	3755.262		46.38824	
76.37901	3757.305		45.07814	
76.43296	3759.298		43.81543	
76.48692	3761.243		42.59661	
76.54086	3763.133		41.41918	
76.59481	3764.959		40.28042	
76.64877	3766.729		39.17792	
76.70271	3768.456		38.10996	
76.75666	3770.152		37.07454	
76.81062	3771.825		36.06979	
76.86456	3773.482		35.09447	
76.91852	3775.139		34.14684	
76.97247	3776.818		33.22584	
77.02641	3778.538		32.33006	
77.08037	3780.307		31.45818	
77.13432	3782.12		30.60931	
77.18826	3783.969		29.78224	
77.24222	3785.828		28.97581	
77.29617	3787.67		28.18926	
77.35012	3789.46		27.42139	
77.40407	3791.171		26.67144	
77.45802	3792.775		25.93829	
77.51197	3794.26		25.22079	
77.56592	3795.619		24.51809	
77.61987	3796.861		23.829	
77.67382	3797.998		23.15235	
77.72777	3799.052		22.48728	
77.78172	3800.038		21.8326	
77.83567	3800.973		21.18752	
77.88962	3801.864		20.55102	
77.94357	3802.723		19.92214	
77.99752	3803.552		19.30028	
78.05147	3804.346		18.68468	
78.10542	3805.098		18.07476	
78.15937	3805.789		17.47035	
78.21333	3806.396		16.87117	
78.26727	3806.913		16.27748	
78.32122	3807.352		15.68954	
78.37518	3807.741		15.1078	
78.42912	3808.111		14.53314	
78.48307	3808.484		13.96636	
78.53703	3808.877		13.40842	
78.59097	3809.313		12.86065	
78.64493	3809.811		12.32421	
78.69888	3810.38		11.8006	
78.75282	3811.014		11.29117	
78.80678	3811.698		10.79729	
78.86073	3812.421		10.32055	
78.91467	3813.164		9.862376	
78.96863	3813.907		9.42418	
79.02258	3814.625		9.007553	
79.07653	3815.303		8.613791	
79.13048	3815.934		8.244279	
79.18443	3816.529		7.900064	
79.23838	3817.093		7.581985	
79.29233	3817.626		7.290794	
79.34628	3818.127		7.026844	
79.40023	3818.6		6.790204	
79.45418	3819.045		6.58073	
79.50813	3819.461		6.397845	
79.56208	3819.84		6.240815	
79.61603	3820.166		6.108595	
79.66998	3820.423		5.999961	
79.72393	3820.595		5.913577	
79.77788	3820.676		5.847912	
79.83183	3820.66		5.801317	
79.88578	3820.552		5.772071	
79.93974	3820.357		5.758337	
79.99368	3820.084		5.758254	
80.04763	3819.76		5.769934	
80.10159	3819.407		5.791529	
80.15553	3819.037		5.821213	
80.20948	3818.655		5.857272	
80.26344	3818.275		5.898101	
80.31738	3817.917		5.942244	
80.37134	3817.589		5.988427	
80.42529	3817.285		6.035574	
80.47923	3816.998		6.082829	
80.53319	3816.722		6.129591	
80.58714	3816.464		6.175454	
80.64108	3816.235		6.220263	
80.69504	3816.056		6.264042	
80.74899	3815.947		6.307014	
80.80294	3815.939		6.349546	
80.85689	3816.056		6.392118	
80.91084	3816.316		6.435308	
80.96479	3816.719		6.479789	
81.01874	3817.26		6.526256	
81.07269	3817.918		6.575454	
81.12664	3818.672		6.62809	
81.18059	3819.496		6.684795	
81.23454	3820.367		6.746124	
81.28849	3821.258		6.812477	
81.34244	3822.156		6.884091	
81.39639	3823.053		6.961	
81.45034	3823.95		7.042959	
81.50429	3824.855		7.129507	
81.55824	3825.782		7.219923	
81.61219	3826.742		7.313195	
81.66615	3827.735		7.408118	
81.72009	3828.761		7.503237	
81.77404	3829.813		7.596999	
81.828	3830.882		7.687748	
81.88194	3831.952		7.773729	
81.93589	3832.997		7.853148	
81.98985	3833.989		7.924171	
82.04379	3834.895		7.98491	
82.09775	3835.686		8.033509	
82.1517	3836.339		8.068077	
82.20564	3836.852		8.086755	
82.2596	3837.242		8.087663	
82.31355	3837.535		8.068954	
82.36749	3837.761		8.028805	
82.42145	3837.956		7.965479	
82.4754	3838.15		7.877363	
82.52934	3838.358		7.763007	
82.5833	3838.584		7.621092	
82.63725	3838.827		7.450587	
82.6912	3839.07		7.250556	
82.74515	3839.287		7.020429	
82.7991	3839.456		6.759737	
82.85305	3839.56		6.468246	
82.907	3839.592		6.146081	
82.96095	3839.565		5.793505	
83.0149	3839.512		5.410961	
83.06885	3839.466		4.999259	
83.1228	3839.467		4.559102	
83.17675	3839.547		4.091589	
83.2307	3839.723		3.597731	
83.28465	3840.003		3.078653	
83.3386	3840.395		2.535741	
83.39255	3840.89		1.970221	
83.4465	3841.472		1.383313	
83.50045	3842.108		0.776504	
83.55441	3842.762		0.1509102	
83.60835	3843.395		-0.4920201	
83.6623	3843.984		-1.151157	
83.71626	3844.508		-1.825434	
83.7702	3844.956		-2.513562	
83.82415	3845.328		-3.214584	
83.87811	3845.629		-3.927634	
83.93205	3845.866		-4.651657	
83.98601	3846.054		-5.386137	
84.03996	3846.204		-6.130304	
84.0939	3846.322		-6.883854	
84.14786	3846.406		-7.646626	
84.20181	3846.457		-8.418252	
84.25575	3846.465		-9.198801	
84.30971	3846.421		-9.988433	
84.36366	3846.31		-10.78706	
84.41761	3846.13		-11.5951	
84.47156	3845.868		-12.41256	
84.52551	3845.512		-13.23981	
84.57946	3845.056		-14.07728	
84.63341	3844.501		-14.92503	
84.68736	3843.855		-15.78354	
84.74131	3843.132		-16.65331	
84.79526	3842.336		-17.5345	
84.84921	3841.472		-18.42776	
84.90316	3840.54		-19.33315	
84.95711	3839.53		-20.25104	
85.01106	3838.428		-21.18167	
85.06501	3837.229		-22.12473	
85.11896	3835.93		-23.08022	
85.17291	3834.517		-24.04794	
85.22686	3832.977		-25.02717	
85.28082	3831.307		-26.01754	
85.33476	3829.507		-27.01799	
85.38871	3827.583		-28.02769	
85.44267	3825.55		-29.04568	
85.49661	3823.425		-30.07044	
85.55056	3821.228		-31.10083	
85.60452	3818.974		-32.13556	
85.65846	3816.679		-33.17286	
85.71242	3814.347		-34.21146	
85.76637	3811.998		-35.24951	
85.82031	3809.648		-36.28554	
85.87427	3807.315		-37.31814	
85.92822	3805.009		-38.34542	
85.98216	3802.733		-39.36599	
86.03612	3800.48		-40.37845	
86.09007	3798.245		-41.38105	
86.14402	3796.019		-42.37266	
86.19797	3793.798		-43.35165	
86.25191	3791.57		-44.31688	
86.30587	3789.333		-45.26726	
86.35982	3787.09		-46.20137	
86.41376	3784.855		-47.11829	
86.46772	3782.627		-48.01719	
86.52167	3780.399		-48.89698	
86.57562	3778.144		-49.75716	
86.62957	3775.835		-50.59683	
86.68352	3773.443		-51.41553	
86.73747	3770.947		-52.21293	
86.79142	3768.33		-52.98849	
86.84537	3765.591		-53.74216	
86.89932	3762.72		-54.47402	
86.95327	3759.726		-55.18396	
87.00723	3756.614		-55.87241	
87.06117	3753.407		-56.53947	
87.11512	3750.117		-57.1857	
87.16908	3746.765		-57.81168	
87.22302	3743.367		-58.41784	
87.27697	3739.937		-59.00491	
87.33092	3736.466		-59.57361	
87.38487	3732.943		-60.12436	
87.43883	3729.356		-60.65789	
87.49277	3725.701		-61.17456	
87.54672	3721.983		-61.67499	
87.60068	3718.209		-62.15976	
87.65462	3714.38		-62.62926	
87.70857	3710.501		-63.0841	
87.76253	3706.574		-63.52493	
87.81647	3702.609		-63.9522	
87.87043	3698.624		-64.36669	
87.92438	3694.644		-64.76894	
87.97832	3690.694		-65.15961	
88.03228	3686.788		-65.53937	
88.08623	3682.931		-65.90861	
88.14017	3679.109		-66.26784	
88.19413	3675.304		-66.61745	
88.24808	3671.49		-66.95761	
88.30203	3667.632		-67.28863	
88.35598	3663.706		-67.61056	
88.40993	3659.708		-67.92355	
88.46388	3655.644		-68.22773	
88.51783	3651.542		-68.52306	
88.57178	3647.431		-68.80959	
88.62573	3643.337		-69.08737	
88.67968	3639.279		-69.35635	
88.73363	3635.285		-69.61665	
88.78758	3631.37		-69.86829	
88.84153	3627.539		-70.11142	
88.89548	3623.784		-70.34624	
88.94943	3620.094		-70.57287	
89.00338	3616.437		-70.79148	
89.05733	3612.781		-71.00227	
89.11128	3609.107		-71.20528	
89.16524	3605.415		-71.40073	
89.21918	3601.713		-71.58872	
89.27313	3598.02		-71.76956	
89.32709	3594.35		-71.94361	
89.38103	3590.722		-72.11124	
89.43498	3587.138		-72.27295	
89.48894	3583.609		-72.42933	
89.54288	3580.138		-72.58095	
89.59684	3576.717		-72.72854	
89.65079	3573.326		-72.87277	
89.70473	3569.948		-73.0144	
89.75869	3566.545		-73.15417	
89.81264	3563.094		-73.29275	
89.86658	3559.564		-73.43079	
89.92054	3555.948		-73.56893	
89.97449	3552.244		-73.70766	
90.02844	3548.456		-73.84753	
90.08239	3544.579		-73.98898	
90.13634	3540.62		-74.13245	
90.19029	3536.586		-74.27829	
90.24424	3532.493		-74.42673	
90.29819	3528.344		-74.578	
90.35214	3524.142		-74.73221	
90.40609	3519.883		-74.88938	
90.46004	3515.567		-75.0495	
90.51399	3511.197		-75.21237	
90.56794	3506.781		-75.37776	
90.62189	3502.317		-75.54535	
90.67584	3497.819		-75.71468	
90.72979	3493.301		-75.8853	
90.78374	3488.778		-76.05672	
90.83769	3484.267		-76.22836	
90.89165	3479.794		-76.39967	
90.94559	3475.369		-76.57005	
90.99954	3470.992		-76.73886	
91.0535	3466.657		-76.90546	
91.10744	3462.364		-77.06906	
91.16139	3458.103		-77.22885	
91.21535	3453.86		-77.38403	
91.26929	3449.618		-77.53374	
91.32325	3445.362		-77.67728	
91.3772	3441.082		-77.81382	
91.43114	3436.779		-77.94268	
91.4851	3432.471		-78.06328	
91.53905	3428.181		-78.17509	
91.59299	3423.929		-78.27787	
91.64695	3419.735		-78.37147	
91.7009	3415.61		-78.45592	
91.75485	3411.542		-78.53142	
91.8088	3407.506		-78.59824	
91.86275	3403.466		-78.6568	
91.9167	3399.392		-78.70756	
91.97065	3395.26		-78.75104	
92.0246	3391.057		-78.78786	
92.07855	3386.775		-78.81866	
92.1325	3382.421		-78.84409	
92.18645	3378.006		-78.86483	
92.2404	3373.555		-78.88158	
92.29435	3369.09		-78.89502	
92.3483	3364.634		-78.90588	
92.40225	3360.2		-78.91489	
92.4562	3355.811		-78.93856	
92.51015	3351.475		-78.96641	
92.5641	3347.2		-78.99709	
92.61806	3342.97		-79.02944	
92.672	3338.773		-79.06264	
92.72595	3334.589		-79.09618	
92.77991	3330.416		-79.12975	
92.83385	3326.244		-79.16319	
92.8878	3322.073		-79.19644	
92.94176	3317.894		-79.2295	
92.9957	3313.706		-79.26237	
93.04966	3309.51		-79.29512	
93.10361	3305.32		-79.32777	
93.15755	3301.139		-79.3604	
93.21151	3296.982		-79.39305	
93.26546	3292.849		-79.42577	
93.3194	3288.753		-79.4586	
93.37336	3284.685		-79.4916	
93.42731	3280.637		-79.52479	
93.48126	3276.576		-79.55822	
93.53521	3272.483		-79.5919	
93.58916	3268.334		-79.62588	
93.64311	3264.122		-79.66018	
93.69706	3259.849		-79.69482	
93.75101	3255.527		-79.72984	
93.80496	3251.152		-79.76527	
93.85891	3246.74		-79.80114	
93.91286	3242.302		-79.83749	
93.96681	3237.873		-79.87432	
94.02076	3233.465		-79.91169	
94.07471	3229.15		-79.94962	
94.12866	3224.767		-79.98814	
94.18261	3220.306		-80.02726	
94.23656	3215.793		-80.06702	
94.29051	3211.247		-80.1074	
94.34447	3206.679		-80.14844	
94.39841	3202.099		-80.19012	
94.45236	3197.515		-80.23246	
94.50632	3192.928		-80.27546	
94.56026	3188.345		-80.31911	
94.61421	3183.766		-80.36341	
94.66817	3179.191		-80.40836	
94.72211	3174.624		-80.45393	
94.77607	3170.063		-80.50014	
94.83002	3165.51		-80.54695	
94.88396	3160.963		-80.59436	
94.93792	3156.417		-80.64236	
94.99187	3151.871		-80.69091	
