T[Â°C]	350nm [counts / mm]	S.D.	First derivative	S.D. of first derivative
20.00115	3071.345	22.15083	-45.97085	1.480665
20.0551	3068.774	22.158	-45.91563	1.425511
20.10905	3066.205	22.16671	-45.86075	1.370839
20.16299	3063.639	22.17681	-45.8062	1.316665
20.21694	3061.075	22.1889	-45.752	1.263008
20.27089	3058.514	22.20289	-45.69815	1.209877
20.32484	3055.955	22.21981	-45.64467	1.157287
20.37879	3053.399	22.23989	-45.59156	1.105255
20.43274	3050.844	22.26344	-45.53884	1.053792
20.48668	3048.292	22.2909	-45.4865	1.002909
20.54063	3045.742	22.32226	-45.43456	0.9526227
20.59458	3043.196	22.35747	-45.38301	0.9029409
20.64853	3040.652	22.39659	-45.33187	0.8538788
20.70248	3038.111	22.43937	-45.28112	0.8054466
20.75643	3035.573	22.48523	-45.23077	0.7576537
20.81037	3033.039	22.53219	-45.18082	0.710516
20.86432	3030.507	22.57702	-45.13125	0.6640472
20.91827	3027.98	22.6147	-45.08206	0.6182608
20.97222	3025.464	22.63814	-45.03324	0.5731788
21.02617	3022.989	22.67874	-44.98476	0.528825
21.08011	3020.52	22.71286	-44.93662	0.4852315
21.13406	3018.062	22.74375	-44.88879	0.4424452
21.18801	3015.616	22.77234	-44.84124	0.4005322
21.24196	3013.188	22.80069	-44.79395	0.3595894
21.29591	3010.779	22.82962	-44.74689	0.3197688
21.34986	3008.394	22.86122	-44.70003	0.2812988
21.4038	3006.032	22.89628	-44.65333	0.2445552
21.45775	3003.696	22.93329	-44.60676	0.2101439
21.5117	3001.382	22.96667	-44.56028	0.1790897
21.56565	2999.082	22.99112	-44.51386	0.1530802
21.6196	2996.792	23.00053	-44.46745	0.1346812
21.67354	2994.508	22.99165	-44.42101	0.1268547
21.72749	2992.222	22.96348	-44.37449	0.1311625
21.78144	2989.927	22.92023	-44.32785	0.1462605
21.83539	2987.619	22.87059	-44.28104	0.1690698
21.88934	2985.301	22.8238	-44.23401	0.1967744
21.94328	2982.977	22.78929	-44.18672	0.2274878
21.99723	2980.652	22.77229	-44.1391	0.2600896
22.05118	2978.33	22.76918	-44.09111	0.2939334
22.10513	2976.013	22.7702	-44.0427	0.3286535
22.15908	2973.703	22.76887	-43.99383	0.3640559
22.21303	2971.399	22.76532	-43.94447	0.4000375
22.26698	2969.099	22.76253	-43.89461	0.4365557
22.32092	2966.8	22.7601	-43.84428	0.4735874
22.37487	2964.496	22.75605	-43.7936	0.5110838
22.42882	2962.183	22.74882	-43.74278	0.5489198
22.48277	2959.855	22.73657	-43.6922	0.5868257
22.53672	2957.511	22.71795	-43.64246	0.6243259
22.59066	2955.151	22.69456	-43.5943	0.6607755
22.64461	2952.776	22.66517	-43.55112	0.6740797
22.69856	2950.391	22.62649	-43.50865	0.6852556
22.75251	2948.001	22.57807	-43.46708	0.6943159
22.80646	2945.614	22.52111	-43.42662	0.7013012
22.8604	2943.236	22.45804	-43.38747	0.7062849
22.91435	2940.869	22.39175	-43.34982	0.7093778
22.9683	2938.51	22.32434	-43.31385	0.7107386
23.02225	2936.156	22.25727	-43.27973	0.7105554
23.0762	2933.804	22.19255	-43.24757	0.7090495
23.13015	2931.448	22.12709	-43.21745	0.7064722
23.18409	2929.081	22.05445	-43.18943	0.7030941
23.23804	2926.702	21.96749	-43.16348	0.6992006
23.29199	2924.309	21.86189	-43.13955	0.6950875
23.34594	2921.901	21.73734	-43.11749	0.6910629
23.39989	2919.481	21.5975	-43.09714	0.6874354
23.45383	2917.051	21.44646	-43.07825	0.6844897
23.50778	2914.615	21.29083	-43.06057	0.6825011
23.56173	2912.178	21.13591	-43.04382	0.6816919
23.61568	2909.751	20.9892	-43.02773	0.6822358
23.66963	2907.345	20.85547	-43.01207	0.6842494
23.72358	2904.966	20.73662	-42.9966	0.6877781
23.77752	2902.618	20.62924	-42.98115	0.6928046
23.83147	2900.297	20.53147	-42.96555	0.6992375
23.88542	2898.001	20.44425	-42.94963	0.7069291
23.93937	2895.725	20.36959	-42.9333	0.7156684
23.99332	2893.464	20.31055	-42.91644	0.7252029
24.04727	2891.214	20.26742	-42.899	0.7352477
24.10121	2888.967	20.23837	-42.88091	0.7454957
24.15516	2886.714	20.22351	-42.86216	0.755645
24.20911	2884.452	20.22121	-42.84275	0.76542
24.26306	2882.183	20.22746	-42.82268	0.7745775
24.31701	2879.912	20.24173	-42.80196	0.7829127
24.37095	2877.648	20.26597	-42.78065	0.790253
24.4249	2875.395	20.30135	-42.75878	0.7964303
24.47885	2873.158	20.34715	-42.73642	0.8012759
24.5328	2870.939	20.40561	-42.71363	0.8046148
24.58675	2868.74	20.47983	-42.6905	0.8062792
24.6407	2866.557	20.57031	-42.6671	0.8061113
24.69464	2864.384	20.67461	-42.6435	0.8039815
24.74859	2862.209	20.78611	-42.61978	0.7997715
24.80254	2860.025	20.89552	-42.59604	0.7934
24.85649	2857.822	20.99621	-42.57237	0.7848246
24.91044	2855.591	21.08379	-42.54888	0.7740433
24.96439	2853.327	21.15738	-42.52569	0.7611113
25.01833	2851.029	21.21973	-42.50292	0.7461266
25.07228	2848.698	21.26986	-42.48071	0.729237
25.12623	2846.338	21.30571	-42.45919	0.7106437
25.18018	2843.961	21.3249	-42.43848	0.6905929
25.23413	2841.575	21.32547	-42.41869	0.6693628
25.28807	2839.189	21.3072	-42.3999	0.6472878
25.34202	2836.811	21.27023	-42.38219	0.6247433
25.39597	2834.448	21.21122	-42.3656	0.6021463
25.44992	2832.102	21.12503	-42.35011	0.5799336
25.50387	2829.777	21.00509	-42.33567	0.558544
25.55782	2827.47	20.8492	-42.32222	0.5384019
25.61176	2825.177	20.66097	-42.3096	0.5198936
25.66571	2822.891	20.44923	-42.29771	0.5033685
25.71966	2820.607	20.22442	-42.28635	0.4891106
25.77361	2818.319	19.99871	-42.27535	0.477339
25.82756	2816.024	19.78655	-42.26452	0.4681862
25.8815	2813.723	19.5973	-42.25372	0.4616954
25.93545	2811.42	19.43428	-42.24279	0.4578152
25.9894	2809.125	19.29663	-42.23164	0.4564008
26.04335	2806.846	19.18094	-42.22018	0.4572352
26.0973	2804.587	19.08428	-42.20836	0.4600412
26.15125	2802.347	19.00651	-42.19617	0.4645168
26.20519	2800.12	18.94278	-42.18361	0.4703329
26.25914	2797.899	18.88831	-42.1707	0.4771634
26.31309	2795.677	18.84078	-42.15745	0.4846961
26.36704	2793.448	18.79852	-42.14388	0.4926422
26.42099	2791.207	18.76161	-42.13002	0.5007183
26.47494	2788.945	18.73399	-42.1159	0.5086737
26.52888	2786.66	18.72086	-42.10152	0.5162755
26.58283	2784.353	18.72688	-42.08688	0.523312
26.63678	2782.028	18.75771	-42.07195	0.5296108
26.69073	2779.688	18.81617	-42.05672	0.535014
26.74468	2777.341	18.90096	-42.04116	0.5393817
26.79862	2774.994	19.00459	-42.02525	0.5425801
26.85257	2772.655	19.11444	-42.00901	0.5444912
26.90652	2770.329	19.21967	-41.99245	0.5450082
26.96047	2768.018	19.31568	-41.97564	0.5440223
27.01442	2765.721	19.40079	-41.95863	0.5414386
27.06837	2763.437	19.47362	-41.94151	0.5371684
27.12231	2761.164	19.53269	-41.92439	0.5311654
27.17626	2758.901	19.57363	-41.90737	0.5234113
27.23021	2756.648	19.59272	-41.89057	0.5139339
27.28416	2754.404	19.59321	-41.87411	0.5028197
27.33811	2752.165	19.58554	-41.85811	0.4902301
27.39205	2749.928	19.57911	-41.84269	0.4763848
27.446	2747.692	19.57754	-41.82794	0.4615621
27.49995	2745.459	19.5833	-41.81393	0.4460717
27.5539	2743.23	19.59923	-41.80072	0.4302237
27.60785	2741.011	19.62717	-41.78833	0.4143209
27.66179	2738.809	19.66623	-41.77674	0.3986472
27.71574	2736.624	19.71355	-41.76593	0.3834629
27.76969	2734.458	19.76814	-41.75581	0.369004
27.82364	2732.302	19.82745	-41.7463	0.3554572
27.87759	2730.146	19.88494	-41.73728	0.342981
27.93154	2727.98	19.93305	-41.72863	0.3316937
27.98549	2725.8	19.96556	-41.72021	0.3216926
28.03943	2723.603	19.97763	-41.71186	0.3130639
28.09338	2721.388	19.96938	-41.70346	0.3058819
28.14733	2719.159	19.94476	-41.69489	0.3002144
28.20128	2716.914	19.90861	-41.68605	0.2960995
28.25523	2714.656	19.86525	-41.67687	0.2935353
28.30917	2712.39	19.81631	-41.66732	0.2924691
28.36312	2710.12	19.76519	-41.65737	0.2927782
28.41707	2707.844	19.71558	-41.64705	0.2942772
28.47102	2705.563	19.66938	-41.63634	0.296704
28.52497	2703.281	19.6277	-41.62528	0.2997662
28.57891	2700.999	19.58991	-41.61385	0.3031498
28.63286	2698.718	19.5552	-41.60203	0.306545
28.68681	2696.442	19.52144	-41.58978	0.3096619
28.74076	2694.169	19.48595	-41.57704	0.3122241
28.79471	2691.901	19.44549	-41.56374	0.3139763
28.84866	2689.638	19.39542	-41.54981	0.3147057
28.90261	2687.382	19.33146	-41.53516	0.3142348
28.95655	2685.132	19.25277	-41.51973	0.3124358
29.0105	2682.891	19.16346	-41.50342	0.3092339
29.06445	2680.659	19.07021	-41.48619	0.3046256
29.1184	2678.435	18.98021	-41.46799	0.2986684
29.17235	2676.213	18.89684	-41.4488	0.2915023
29.22629	2673.991	18.82394	-41.4286	0.2833324
29.28024	2671.765	18.76852	-41.40742	0.2744618
29.33419	2669.535	18.73573	-41.38528	0.2652628
29.38814	2667.303	18.72709	-41.36221	0.2562349
29.44209	2665.066	18.73938	-41.33828	0.2479785
29.49603	2662.821	18.76717	-41.31355	0.2411938
29.54998	2660.563	18.80137	-41.28811	0.2366121
29.60393	2658.292	18.83098	-41.26207	0.2348966
29.65788	2656.009	18.84529	-41.23555	0.2365497
29.71183	2653.716	18.83776	-41.20867	0.2418251
29.76578	2651.421	18.80794	-41.18156	0.2506928
29.81972	2649.127	18.76003	-41.15433	0.2628786
29.87367	2646.84	18.69997	-41.12704	0.2779439
29.92762	2644.564	18.63431	-41.09977	0.2953607
29.98157	2642.302	18.56506	-41.07252	0.314596
30.03552	2640.048	18.49255	-41.0453	0.3351344
30.08946	2637.801	18.41809	-41.01811	0.3565261
30.14341	2635.552	18.34397	-40.99094	0.3783748
30.19736	2633.301	18.2745	-40.9638	0.4003533
30.25131	2631.05	18.21411	-40.93672	0.4221929
30.30526	2628.799	18.16894	-40.90972	0.4436844
30.35921	2626.552	18.14146	-40.88287	0.4646417
30.41315	2624.313	18.1303	-40.85626	0.4849135
30.4671	2622.088	18.13417	-40.82999	0.504344
30.52105	2619.879	18.15192	-40.8042	0.5227707
30.575	2617.691	18.18395	-40.77904	0.5400058
30.62895	2615.524	18.23063	-40.75467	0.5558311
30.6829	2613.38	18.29181	-40.73125	0.5699965
30.73684	2611.253	18.36841	-40.70891	0.5822419
30.79079	2609.141	18.4607	-40.68775	0.5923022
30.84474	2607.037	18.56827	-40.66785	0.5999228
30.89869	2604.935	18.68985	-40.64924	0.6048658
30.95264	2602.827	18.82467	-40.6319	0.6069118
31.00658	2600.711	18.97075	-40.61578	0.6058756
31.06053	2598.589	19.12539	-40.60077	0.601622
31.11448	2596.46	19.2807	-40.58676	0.594073
31.16843	2594.324	19.42655	-40.57358	0.5832258
31.22238	2592.182	19.55463	-40.56109	0.5691387
31.27633	2590.038	19.66219	-40.54911	0.551937
31.33027	2587.896	19.7502	-40.53747	0.5317985
31.38422	2585.756	19.82014	-40.52605	0.5089619
31.43817	2583.618	19.87364	-40.51472	0.4837218
31.49212	2581.482	19.91475	-40.50343	0.4564254
31.54607	2579.349	19.94589	-40.49212	0.4274773
31.60001	2577.216	19.96596	-40.4808	0.3973586
31.65396	2575.082	19.97138	-40.46947	0.3666249
31.70791	2572.944	19.95779	-40.45815	0.3359288
31.76186	2570.8	19.9223	-40.44682	0.3060367
31.81581	2568.645	19.86608	-40.43551	0.2778736
31.86975	2566.476	19.79265	-40.42422	0.2525518
31.9237	2564.294	19.70784	-40.41294	0.2313556
31.97765	2562.1	19.61311	-40.40165	0.2156466
32.0316	2559.895	19.50722	-40.3903	0.2065933
32.08555	2557.681	19.3923	-40.37883	0.2047902
32.1395	2555.464	19.27239	-40.36721	0.2099826
32.19344	2553.247	19.15264	-40.3554	0.2211178
32.24739	2551.035	19.03919	-40.34335	0.2367385
32.30134	2548.828	18.9367	-40.33104	0.2553693
32.35529	2546.625	18.84845	-40.31846	0.2757322
32.40924	2544.425	18.77476	-40.30562	0.2968177
32.46318	2542.229	18.71369	-40.29255	0.3178555
32.51714	2540.036	18.66191	-40.27926	0.3382767
32.57108	2537.849	18.6172	-40.26582	0.3576809
32.62503	2535.667	18.57724	-40.25226	0.3757994
32.67898	2533.487	18.53879	-40.23865	0.3924639
32.73293	2531.302	18.49701	-40.22505	0.4075757
32.78688	2529.108	18.4461	-40.21151	0.4210746
32.84082	2526.901	18.38261	-40.19808	0.4329422
32.89477	2524.677	18.30626	-40.1848	0.4431929
32.94872	2522.438	18.22046	-40.17165	0.4518812
33.00267	2520.187	18.13518	-40.15863	0.4590847
33.05662	2517.927	18.05929	-40.14569	0.46492
33.11057	2515.662	17.99552	-40.13275	0.4695225
33.16451	2513.396	17.94179	-40.11968	0.4730196
33.21846	2511.136	17.89567	-40.10633	0.4755301
33.27241	2508.885	17.85379	-40.09253	0.4771443
33.32636	2506.645	17.81302	-40.07808	0.4779322
33.38031	2504.418	17.77293	-40.06282	0.4779363
33.43425	2502.206	17.73618	-40.04656	0.4771664
33.4882	2500.011	17.70716	-40.02916	0.4755977
33.54215	2497.834	17.68792	-40.0105	0.4731821
33.5961	2495.674	17.67921	-39.9905	0.4698329
33.65005	2493.525	17.68167	-39.96909	0.4654427
33.70399	2491.387	17.69446	-39.94624	0.4598986
33.75794	2489.259	17.71852	-39.92194	0.4530931
33.81189	2487.138	17.75687	-39.89621	0.4449316
33.86584	2485.026	17.81523	-39.86913	0.435349
33.91979	2482.922	17.89685	-39.84077	0.4243158
33.97374	2480.827	17.99736	-39.81123	0.4118392
34.02768	2478.741	18.11035	-39.78064	0.3979768
34.08163	2476.665	18.23122	-39.74912	0.3828207
34.13558	2474.597	18.35372	-39.71681	0.3665108
34.18953	2472.54	18.47114	-39.68387	0.3492528
34.24348	2470.494	18.57796	-39.65046	0.3313332
34.29742	2468.461	18.67316	-39.61677	0.3131225
34.35137	2466.436	18.7556	-39.583	0.2950922
34.40532	2464.416	18.82451	-39.54935	0.2778214
34.45927	2462.393	18.87759	-39.51606	0.2619858
34.51322	2460.359	18.91201	-39.48333	0.2483546
34.56717	2458.313	18.92445	-39.45137	0.2377264
34.62111	2456.25	18.91257	-39.42039	0.2308506
34.67506	2454.169	18.87744	-39.39057	0.2282872
34.72901	2452.065	18.82335	-39.36213	0.2302654
34.78296	2449.936	18.75561	-39.33524	0.2366181
34.83691	2447.78	18.67941	-39.3101	0.2468268
34.89085	2445.596	18.59496	-39.28685	0.2601412
34.94481	2443.388	18.49932	-39.26566	0.2757196
34.99875	2441.159	18.39198	-39.24664	0.2927408
35.0527	2438.916	18.27637	-39.22987	0.31046
35.10665	2436.669	18.1567	-39.21542	0.3282238
35.16059	2434.43	18.03409	-39.20329	0.3454751
35.21455	2432.207	17.9116	-39.19339	0.361745
35.26849	2430.007	17.79179	-39.18563	0.3766551
35.32244	2427.834	17.67994	-39.17982	0.3899163
35.37639	2425.687	17.5826	-39.17574	0.4013222
35.43034	2423.566	17.50572	-39.17312	0.4107428
35.48429	2421.467	17.45151	-39.17165	0.4181224
35.53823	2419.386	17.42133	-39.171	0.4234682
35.59218	2417.317	17.41277	-39.17084	0.4268413
35.64613	2415.253	17.42131	-39.17083	0.4283616
35.70008	2413.19	17.44125	-39.17065	0.4281889
35.75403	2411.131	17.46864	-39.16998	0.4265276
35.80798	2409.079	17.50073	-39.16856	0.4236132
35.86192	2407.032	17.53551	-39.16614	0.4196906
35.91587	2404.991	17.57265	-39.16252	0.4150081
35.96982	2402.953	17.6114	-39.15752	0.4097871
36.02377	2400.918	17.64927	-39.15103	0.4042058
36.07772	2398.884	17.68398	-39.14294	0.3983653
36.13166	2396.844	17.71204	-39.13321	0.3923075
36.18561	2394.794	17.72786	-39.12181	0.3860114
36.23956	2392.735	17.72832	-39.10875	0.3794343
36.29351	2390.666	17.70978	-39.09407	0.3725086
36.34746	2388.585	17.67032	-39.07779	0.3651595
36.40141	2386.49	17.6124	-39.05997	0.3573157
36.45535	2384.38	17.54181	-39.04063	0.3489021
36.5093	2382.253	17.46175	-39.01982	0.3398506
36.56325	2380.11	17.37432	-38.9976	0.3301142
36.6172	2377.954	17.28118	-38.97402	0.3196836
36.67115	2375.79	17.18553	-38.94917	0.3085749
36.72509	2373.62	17.08769	-38.92318	0.2968534
36.77904	2371.445	16.98527	-38.89619	0.2846135
36.83299	2369.266	16.87764	-38.86839	0.2719859
36.88694	2367.086	16.76705	-38.83995	0.2591191
36.94089	2364.906	16.65792	-38.81112	0.2461738
36.99483	2362.726	16.56072	-38.7821	0.2333215
37.04878	2360.548	16.48792	-38.75312	0.2207374
37.10273	2358.375	16.44435	-38.7244	0.208616
37.15668	2356.209	16.42952	-38.69613	0.1971849
37.21063	2354.054	16.43844	-38.66847	0.1867096
37.26458	2351.909	16.46596	-38.64156	0.1774982
37.31852	2349.777	16.51103	-38.61546	0.1698967
37.37247	2347.658	16.57447	-38.59026	0.1642402
37.42642	2345.553	16.656	-38.56596	0.1608227
37.48037	2343.465	16.75551	-38.54256	0.1598412
37.53432	2341.393	16.87139	-38.52002	0.1613535
37.58826	2339.335	16.99998	-38.49829	0.1652885
37.64222	2337.284	17.1342	-38.47729	0.1714369
37.69616	2335.236	17.26807	-38.45693	0.1794963
37.75011	2333.187	17.39799	-38.43708	0.1891261
37.80406	2331.138	17.5166	-38.41763	0.2000045
37.85801	2329.089	17.61484	-38.39846	0.2118394
37.91196	2327.04	17.68813	-38.37946	0.2244173
37.9659	2324.99	17.73689	-38.36058	0.2375831
38.01985	2322.945	17.76469	-38.34175	0.2512306
38.0738	2320.906	17.77614	-38.32296	0.26529
38.12775	2318.873	17.77491	-38.30422	0.2797206
38.18169	2316.845	17.76529	-38.28554	0.2944842
38.23565	2314.823	17.74767	-38.26696	0.3095438
38.28959	2312.806	17.71873	-38.24854	0.3248674
38.34354	2310.792	17.67464	-38.23032	0.3404102
38.39749	2308.779	17.61223	-38.21234	0.3561184
38.45144	2306.764	17.53037	-38.19466	0.3719174
38.50539	2304.744	17.42609	-38.17729	0.3877132
38.55933	2302.718	17.30155	-38.16026	0.4034027
38.61328	2300.688	17.17058	-38.14356	0.4188607
38.66723	2298.657	17.05123	-38.12722	0.4339598
38.72118	2296.625	16.95557	-38.11123	0.4485779
38.77513	2294.587	16.88798	-38.09561	0.4625917
38.82907	2292.546	16.84871	-38.08039	0.4759113
38.88302	2290.507	16.83414	-38.06558	0.4884494
38.93697	2288.473	16.83942	-38.05124	0.5001509
38.99092	2286.448	16.86208	-38.03738	0.5109664
39.04487	2284.434	16.90079	-38.02408	0.5208542
39.09882	2282.429	16.95279	-38.01137	0.5297849
39.15276	2280.435	17.01369	-37.99928	0.5377313
39.20671	2278.446	17.07645	-37.98785	0.5446765
39.26066	2276.457	17.1333	-37.97708	0.5505913
39.31461	2274.463	17.17433	-37.96697	0.555437
39.36856	2272.458	17.19076	-37.95752	0.5591647
39.4225	2270.438	17.17658	-37.94873	0.5617433
39.47645	2268.401	17.12888	-37.94059	0.5631465
39.5304	2266.347	17.04817	-37.93306	0.563377
39.58435	2264.279	16.93893	-37.92609	0.5624655
39.6383	2262.2	16.80787	-37.91962	0.5604758
39.69225	2260.116	16.66399	-37.91356	0.5574732
39.74619	2258.032	16.51576	-37.90776	0.5535533
39.80014	2255.951	16.36713	-37.90211	0.5488307
39.85409	2253.871	16.21995	-37.89645	0.5434389
39.90804	2251.789	16.07467	-37.89064	0.5375265
39.96199	2249.7	15.93073	-37.88456	0.5312452
40.01593	2247.603	15.78761	-37.87807	0.5247461
40.06988	2245.499	15.64468	-37.87106	0.5181793
40.12383	2243.387	15.50103	-37.86342	0.511691
40.17778	2241.268	15.35697	-37.85505	0.5054132
40.23173	2239.146	15.21543	-37.84586	0.4994673
40.28568	2237.026	15.0845	-37.83579	0.4939461
40.33962	2234.916	14.97342	-37.8248	0.4889169
40.39357	2232.816	14.89073	-37.81287	0.484406
40.44752	2230.728	14.84095	-37.79998	0.480425
40.50147	2228.647	14.82093	-37.78613	0.4769619
40.55542	2226.573	14.82749	-37.77129	0.4739869
40.60936	2224.511	14.85817	-37.75546	0.471451
40.66331	2222.463	14.91018	-37.7386	0.4692807
40.71726	2220.43	14.98229	-37.72069	0.4673809
40.77121	2218.411	15.07554	-37.70169	0.4656443
40.82516	2216.404	15.18799	-37.68156	0.4639466
40.8791	2214.406	15.31371	-37.66027	0.4621488
40.93306	2212.411	15.44463	-37.63778	0.4601139
40.987	2210.413	15.57298	-37.61404	0.4576946
41.04095	2208.407	15.68919	-37.58902	0.4547507
41.0949	2206.396	15.78574	-37.56272	0.4511628
41.14885	2204.382	15.85905	-37.53514	0.4468464
41.2028	2202.366	15.91124	-37.50631	0.4417432
41.25674	2200.352	15.94639	-37.47629	0.4358099
41.31069	2198.341	15.96779	-37.44516	0.4290143
41.36464	2196.333	15.97897	-37.41304	0.4213417
41.41859	2194.329	15.982	-37.38011	0.4128039
41.47254	2192.326	15.97941	-37.34653	0.4034406
41.52649	2190.322	15.97472	-37.31251	0.3933368
41.58043	2188.312	15.97104	-37.27822	0.3826102
41.63438	2186.296	15.97042	-37.24382	0.3714181
41.68833	2184.272	15.9699	-37.20948	0.3599349
41.74228	2182.246	15.96519	-37.17531	0.3483758
41.79623	2180.221	15.95415	-37.14143	0.3369604
41.85017	2178.199	15.93612	-37.10796	0.3259212
41.90412	2176.178	15.91146	-37.07496	0.3154819
41.95807	2174.159	15.88088	-37.0425	0.3058671
42.01202	2172.145	15.84648	-37.0106	0.2972831
42.06597	2170.135	15.81021	-36.9793	0.289903
42.11992	2168.13	15.7683	-36.9486	0.2838622
42.17386	2166.132	15.71699	-36.91851	0.2792317
42.22781	2164.146	15.65348	-36.88903	0.2760233
42.28176	2162.173	15.57877	-36.86017	0.2741789
42.33571	2160.216	15.49558	-36.83191	0.2735901
42.38966	2158.272	15.40886	-36.80427	0.2741058
42.4436	2156.341	15.32343	-36.77723	0.2755445
42.49755	2154.417	15.24247	-36.75079	0.2777325
42.5515	2152.496	15.16943	-36.72494	0.2804949
42.60545	2150.569	15.10305	-36.6997	0.2836776
42.6594	2148.63	15.04077	-36.67505	0.2871423
42.71334	2146.677	14.97864	-36.65104	0.290779
42.76729	2144.71	14.91262	-36.62769	0.2944758
42.82124	2142.732	14.84108	-36.60502	0.2981423
42.87519	2140.745	14.76549	-36.58303	0.3016882
42.92914	2138.752	14.68958	-36.56173	0.3050146
42.98309	2136.758	14.61856	-36.54105	0.3080167
43.03703	2134.765	14.55735	-36.52095	0.3106045
43.09098	2132.78	14.50559	-36.50133	0.312692
43.14493	2130.807	14.4611	-36.48212	0.31421
43.19888	2128.844	14.4223	-36.46324	0.3151206
43.25283	2126.89	14.388	-36.44461	0.3154033
43.30677	2124.941	14.35743	-36.42618	0.3150612
43.36073	2122.994	14.33088	-36.40786	0.314122
43.41467	2121.047	14.30977	-36.38964	0.3126165
43.46862	2119.097	14.29706	-36.37148	0.3105966
43.52257	2117.142	14.29725	-36.35336	0.308118
43.57652	2115.181	14.31443	-36.33528	0.305266
43.63047	2113.213	14.34898	-36.31725	0.3021205
43.68441	2111.237	14.39612	-36.29933	0.2987658
43.73836	2109.256	14.45076	-36.28153	0.2952813
43.79231	2107.274	14.508	-36.26393	0.291734
43.84626	2105.295	14.56592	-36.24656	0.288175
43.90021	2103.322	14.62242	-36.2295	0.2846245
43.95415	2101.356	14.67848	-36.21278	0.2810988
44.0081	2099.396	14.73773	-36.19646	0.2775996
44.06205	2097.441	14.80253	-36.18054	0.2741156
44.116	2095.491	14.87373	-36.16505	0.2706326
44.16995	2093.548	14.94971	-36.15	0.2671293
44.2239	2091.613	15.02949	-36.13538	0.2635939
44.27784	2089.684	15.10824	-36.12119	0.2600238
44.33179	2087.758	15.17943	-36.10739	0.2564487
44.38574	2085.827	15.23967	-36.09394	0.2529171
44.43969	2083.887	15.28736	-36.0808	0.2495092
44.49364	2081.938	15.32129	-36.06792	0.2463461
44.54758	2079.981	15.3368	-36.05529	0.2435692
44.60153	2078.018	15.33132	-36.0429	0.2413497
44.65548	2076.05	15.30642	-36.03077	0.23986
44.70943	2074.082	15.26367	-36.01896	0.2392704
44.76338	2072.118	15.20555	-36.00755	0.2397268
44.81733	2070.16	15.13557	-35.99661	0.2413369
44.87127	2068.212	15.05869	-35.98624	0.2441497
44.92522	2066.273	14.97951	-35.97649	0.2481532
44.97917	2064.343	14.90397	-35.96742	0.2532761
45.03312	2062.419	14.83683	-35.9591	0.2594034
45.08707	2060.503	14.78127	-35.95155	0.2663853
45.14101	2058.594	14.73859	-35.9448	0.2740478
45.19496	2056.688	14.70699	-35.93887	0.2822095
45.24891	2054.779	14.68437	-35.93377	0.290689
45.30286	2052.86	14.66787	-35.92947	0.2993098
45.35681	2050.929	14.65111	-35.92594	0.3079031
45.41076	2048.989	14.6274	-35.9231	0.3162938
45.4647	2047.04	14.59317	-35.92087	0.3243182
45.51865	2045.084	14.54828	-35.91919	0.331813
45.5726	2043.127	14.49645	-35.91796	0.3386213
45.62655	2041.173	14.44162	-35.91713	0.3445913
45.6805	2039.228	14.38629	-35.91664	0.3495761
45.73444	2037.293	14.33507	-35.91646	0.3534343
45.78839	2035.37	14.2921	-35.91656	0.3560356
45.84234	2033.462	14.25969	-35.91692	0.3572575
45.89629	2031.565	14.239	-35.91754	0.3569948
45.95024	2029.674	14.23166	-35.9184	0.355179
46.00418	2027.785	14.23623	-35.9195	0.3517849
46.05814	2025.891	14.24703	-35.92084	0.3468387
46.11208	2023.991	14.25496	-35.92239	0.3404
46.16603	2022.084	14.2514	-35.92412	0.3325673
46.21998	2020.171	14.23008	-35.92598	0.3234629
46.27393	2018.252	14.18671	-35.92786	0.3132309
46.32788	2016.33	14.11801	-35.92969	0.3020316
46.38182	2014.404	14.02734	-35.93133	0.2900545
46.43577	2012.474	13.92381	-35.93264	0.2775082
46.48972	2010.543	13.81602	-35.93348	0.2646146
46.54367	2008.612	13.70812	-35.93372	0.251606
46.59762	2006.683	13.60497	-35.93325	0.2387252
46.65157	2004.755	13.51312	-35.93196	0.2262195
46.70551	2002.828	13.43504	-35.92976	0.2143566
46.75946	2000.898	13.37266	-35.92658	0.2034156
46.81341	1998.965	13.32957	-35.92234	0.1937104
46.86736	1997.023	13.30858	-35.91695	0.1855887
46.92131	1995.07	13.31057	-35.91038	0.1794147
46.97525	1993.1	13.33338	-35.90255	0.1755243
47.0292	1991.114	13.37458	-35.89347	0.1741492
47.08315	1989.115	13.43143	-35.8831	0.1753751
47.1371	1987.109	13.49946	-35.87148	0.1790872
47.19105	1985.104	13.57637	-35.85859	0.1850163
47.245	1983.103	13.66199	-35.84451	0.1927718
47.29894	1981.109	13.75868	-35.82927	0.201921
47.35289	1979.126	13.86551	-35.81293	0.212025
47.40684	1977.156	13.98102	-35.79557	0.2226786
47.46079	1975.203	14.10279	-35.77724	0.2335138
47.51474	1973.261	14.22789	-35.75802	0.2442281
47.56868	1971.329	14.35263	-35.738	0.2545814
47.62263	1969.404	14.47306	-35.71723	0.2643898
47.67658	1967.48	14.58601	-35.6958	0.2735315
47.73053	1965.555	14.68671	-35.67376	0.2819284
47.78448	1963.623	14.76873	-35.65118	0.2895601
47.83842	1961.685	14.82491	-35.62811	0.2964439
47.89237	1959.742	14.85201	-35.60464	0.30265
47.94632	1957.795	14.85333	-35.58087	0.3082806
48.00027	1955.845	14.83663	-35.55693	0.3134779
48.05422	1953.893	14.80858	-35.53296	0.3183942
48.10817	1951.943	14.77111	-35.50911	0.3231767
48.16211	1949.999	14.72378	-35.48555	0.3279692
48.21606	1948.059	14.66663	-35.46239	0.3328864
48.27001	1946.123	14.59765	-35.43979	0.3380232
48.32396	1944.189	14.51565	-35.41781	0.3434601
48.37791	1942.256	14.42315	-35.39655	0.3492633
48.43185	1940.325	14.32453	-35.37606	0.355504
48.4858	1938.396	14.22145	-35.35638	0.3622355
48.53975	1936.467	14.11553	-35.33751	0.3694977
48.5937	1934.538	14.01014	-35.31948	0.377302
48.64765	1932.608	13.90798	-35.30227	0.3856559
48.7016	1930.678	13.81051	-35.28585	0.3945393
48.75554	1928.754	13.72003	-35.27018	0.4039239
48.80949	1926.841	13.6402	-35.25523	0.4137422
48.86344	1924.946	13.57484	-35.24093	0.4238941
48.91739	1923.071	13.52473	-35.22726	0.4342335
48.97134	1921.219	13.48761	-35.21417	0.4445739
49.02528	1919.391	13.45943	-35.20163	0.4546747
49.07924	1917.582	13.43571	-35.18959	0.4642573
49.13318	1915.786	13.41124	-35.17804	0.4730204
49.18713	1913.997	13.37764	-35.16696	0.4806677
49.24108	1912.21	13.3309	-35.15633	0.4869195
49.29502	1910.419	13.26993	-35.14616	0.4915336
49.34898	1908.623	13.19585	-35.13645	0.4943265
49.40292	1906.82	13.11164	-35.12722	0.4951729
49.45687	1905.009	13.0225	-35.11846	0.4940027
49.51082	1903.192	12.93474	-35.11018	0.4908023
49.56477	1901.369	12.85739	-35.10239	0.4855981
49.61872	1899.541	12.79693	-35.09509	0.4784667
49.67266	1897.71	12.75724	-35.08823	0.4695168
49.72661	1895.874	12.74029	-35.08178	0.4589013
49.78056	1894.028	12.74303	-35.07566	0.4467996
49.83451	1892.169	12.75627	-35.06978	0.433409
49.88846	1890.293	12.76921	-35.06406	0.4189189
49.94241	1888.399	12.77619	-35.0584	0.4034962
49.99635	1886.489	12.77604	-35.0527	0.3872959
50.0503	1884.564	12.7689	-35.04685	0.3704408
50.10425	1882.626	12.75463	-35.04076	0.3530289
50.1582	1880.68	12.73338	-35.03434	0.3351363
50.21215	1878.728	12.70563	-35.02748	0.3167953
50.26609	1876.775	12.67167	-35.02009	0.2980217
50.32004	1874.823	12.63522	-35.01208	0.2788258
50.37399	1872.874	12.60418	-35.00336	0.2592261
50.42794	1870.931	12.58593	-34.99386	0.2392696
50.48189	1868.99	12.58313	-34.98349	0.2190417
50.53584	1867.05	12.59417	-34.97218	0.1986638
50.58978	1865.107	12.61511	-34.95987	0.1782758
50.64373	1863.162	12.64035	-34.94648	0.1580377
50.69768	1861.214	12.66435	-34.93196	0.1381201
50.75163	1859.268	12.68368	-34.91626	0.118695
50.80558	1857.326	12.69909	-34.89934	0.09994175
50.85952	1855.394	12.71245	-34.88118	0.08203879
50.91347	1853.472	12.72315	-34.86179	0.06517605
50.96742	1851.563	12.72853	-34.84118	0.0495955
51.02137	1849.664	12.72753	-34.81937	0.03569419
51.07532	1847.775	12.72438	-34.79641	0.0244239
51.12926	1845.893	12.72677	-34.77237	0.0183063
51.18321	1844.015	12.7403	-34.74731	0.02016834
51.23716	1842.141	12.76819	-34.72133	0.02719565
51.29111	1840.269	12.81238	-34.69452	0.03569234
51.34506	1838.39	12.87346	-34.66699	0.04426667
51.39901	1836.498	12.9487	-34.63885	0.05247078
51.45295	1834.589	13.03178	-34.61021	0.06012584
51.5069	1832.664	13.11647	-34.58117	0.06712745
51.56085	1830.726	13.19657	-34.55185	0.07340588
51.6148	1828.783	13.26757	-34.52237	0.07889915
51.66875	1826.845	13.32605	-34.49284	0.08355896
51.72269	1824.918	13.37064	-34.46335	0.08733117
51.77665	1823.006	13.4017	-34.43404	0.09018099
51.83059	1821.113	13.4176	-34.40497	0.09207352
51.88454	1819.237	13.41592	-34.37626	0.09298181
51.93849	1817.38	13.395	-34.34797	0.0928994
51.99244	1815.54	13.35654	-34.32016	0.09183431
52.04639	1813.712	13.30507	-34.29287	0.08981937
52.10033	1811.89	13.24717	-34.26614	0.08690021
52.15428	1810.068	13.19159	-34.23999	0.08316544
52.20823	1808.244	13.14574	-34.21442	0.07873532
52.26218	1806.418	13.11226	-34.18945	0.07376379
52.31613	1804.594	13.08911	-34.16504	0.06843579
52.37008	1802.779	13.0736	-34.1412	0.0629762
52.42402	1800.977	13.06206	-34.11794	0.05764578
52.47797	1799.194	13.05122	-34.09525	0.05275522
52.53192	1797.434	13.03747	-34.07317	0.0487073
52.58587	1795.695	13.01873	-34.0517	0.04600489
52.63982	1793.974	12.99495	-34.03089	0.04519551
52.69376	1792.263	12.96843	-34.01078	0.04667883
52.74771	1790.556	12.94455	-33.99143	0.05055499
52.80166	1788.85	12.92804	-33.97289	0.05660581
52.85561	1787.143	12.92267	-33.95519	0.06449346
52.90956	1785.432	12.92895	-33.93839	0.07390374
52.9635	1783.713	12.94249	-33.92254	0.08459853
53.01745	1781.983	12.95652	-33.90766	0.0964073
53.0714	1780.239	12.96667	-33.8938	0.1092006
53.12535	1778.479	12.97221	-33.88099	0.1228641
53.1793	1776.702	12.97242	-33.8693	0.1372809
53.23325	1774.907	12.96382	-33.85879	0.1523198
53.28719	1773.094	12.94632	-33.84951	0.1678346
53.34114	1771.266	12.92277	-33.84153	0.1836787
53.39509	1769.423	12.89553	-33.8349	0.1996932
53.44904	1767.568	12.86571	-33.82969	0.215716
53.50299	1765.702	12.8331	-33.82591	0.2315755
53.55693	1763.825	12.79844	-33.82357	0.2470926
53.61088	1761.94	12.76357	-33.82264	0.2620898
53.66483	1760.044	12.72926	-33.82306	0.2763918
53.71878	1758.139	12.69829	-33.82475	0.2898483
53.77273	1756.225	12.67581	-33.82762	0.3023279
53.82668	1754.305	12.66619	-33.83151	0.3137493
53.88062	1752.385	12.66872	-33.83625	0.3240754
53.93457	1750.471	12.6789	-33.84163	0.3332994
53.98852	1748.564	12.69149	-33.84747	0.34146
54.04247	1746.668	12.7011	-33.85353	0.3486181
54.09642	1744.783	12.70493	-33.85965	0.3548447
54.15036	1742.91	12.70521	-33.8656	0.3602087
54.20432	1741.048	12.70868	-33.87122	0.364771
54.25826	1739.199	12.72008	-33.8763	0.3685864
54.31221	1737.363	12.74125	-33.88067	0.3717035
54.36616	1735.539	12.77264	-33.88416	0.3741712
54.4201	1733.725	12.81286	-33.8866	0.3760328
54.47406	1731.919	12.85846	-33.88786	0.377337
54.528	1730.119	12.90477	-33.88782	0.3781379
54.58195	1728.326	12.94357	-33.88638	0.3784754
54.6359	1726.536	12.96688	-33.88348	0.3783911
54.68985	1724.746	12.97185	-33.87907	0.3779083
54.7438	1722.953	12.96005	-33.87311	0.3770498
54.79774	1721.158	12.93592	-33.86562	0.3758388
54.85169	1719.357	12.90442	-33.85659	0.3742824
54.90564	1717.546	12.86777	-33.84607	0.3723885
54.95959	1715.723	12.82419	-33.83412	0.3701696
55.01354	1713.886	12.76957	-33.8208	0.3676454
55.06749	1712.041	12.69948	-33.80624	0.364856
55.12143	1710.19	12.61269	-33.79055	0.3618615
55.17538	1708.335	12.51157	-33.77389	0.3587398
55.22933	1706.475	12.40309	-33.75644	0.355578
55.28328	1704.612	12.29435	-33.73838	0.352472
55.33723	1702.749	12.18935	-33.71994	0.3495033
55.39117	1700.888	12.0917	-33.70135	0.3467337
55.44512	1699.031	12.00415	-33.68283	0.3441993
55.49907	1697.177	11.92652	-33.66461	0.3419051
55.55302	1695.329	11.85597	-33.6469	0.3398184
55.60697	1693.484	11.78714	-33.62991	0.3378827
55.66092	1691.645	11.71619	-33.61381	0.3360314
55.71486	1689.81	11.64283	-33.59873	0.3341708
55.76881	1687.982	11.57128	-33.5848	0.3321957
55.82276	1686.161	11.50849	-33.57208	0.3299671
55.87671	1684.349	11.4597	-33.56063	0.3273539
55.93066	1682.547	11.42823	-33.55046	0.3242113
55.9846	1680.754	11.41541	-33.54155	0.3203943
56.03855	1678.971	11.41962	-33.53387	0.3157658
56.0925	1677.198	11.43859	-33.52737	0.3101945
56.14645	1675.436	11.4733	-33.52201	0.3035574
56.2004	1673.685	11.52348	-33.5177	0.2957655
56.25434	1671.941	11.58439	-33.51435	0.2867482
56.30829	1670.202	11.65067	-33.51185	0.2764727
56.36224	1668.467	11.71869	-33.51009	0.2649352
56.41619	1666.734	11.7843	-33.50896	0.2521569
56.47014	1665.003	11.845	-33.50834	0.2381953
56.52409	1663.271	11.8966	-33.5081	0.2231402
56.57803	1661.534	11.93265	-33.50811	0.2071271
56.63198	1659.786	11.95017	-33.50824	0.1903226
56.68593	1658.022	11.95335	-33.50834	0.1729451
56.73988	1656.243	11.94953	-33.50825	0.1552426
56.79383	1654.449	11.94586	-33.50783	0.1374918
56.84777	1652.642	11.9482	-33.50691	0.1199903
56.90172	1650.826	11.95794	-33.50531	0.1030595
56.95567	1649.007	11.97445	-33.50288	0.0870685
57.00962	1647.187	11.99358	-33.49944	0.07248779
57.06357	1645.368	12.00704	-33.49483	0.05997362
57.11752	1643.554	12.00639	-33.48889	0.05045581
57.17146	1641.741	11.98815	-33.48149	0.0450544
57.22541	1639.928	11.95168	-33.47253	0.04445527
57.27936	1638.114	11.89589	-33.46189	0.04811264
57.33331	1636.301	11.82082	-33.44953	0.05464774
57.38726	1634.489	11.73274	-33.43538	0.06284769
57.4412	1632.676	11.64343	-33.41943	0.07202798
57.49516	1630.863	11.56521	-33.40166	0.08190294
57.5491	1629.045	11.50655	-33.38209	0.09243524
57.60305	1627.221	11.47216	-33.36077	0.1036879
57.657	1625.389	11.46208	-33.33775	0.1157688
57.71095	1623.55	11.47327	-33.3131	0.1287816
57.7649	1621.708	11.50179	-33.28691	0.142795
57.81884	1619.864	11.54336	-33.25931	0.1578515
57.87279	1618.022	11.59292	-33.23042	0.1739412
57.92674	1616.184	11.64499	-33.20041	0.1910092
57.98069	1614.352	11.69438	-33.16942	0.2089636
58.03464	1612.526	11.73585	-33.13762	0.2276613
58.08858	1610.705	11.76867	-33.10514	0.2469225
58.14253	1608.885	11.79457	-33.07215	0.2665345
58.19648	1607.065	11.81296	-33.03876	0.2862663
58.25043	1605.243	11.82387	-33.00512	0.3058888
58.30438	1603.413	11.83295	-32.97134	0.3251871
58.35833	1601.572	11.8477	-32.93755	0.3439661
58.41227	1599.717	11.87422	-32.90387	0.3620468
58.46622	1597.852	11.91539	-32.8704	0.3792692
58.52017	1595.982	11.9683	-32.83725	0.3954948
58.57412	1594.11	12.02658	-32.80453	0.4105972
58.62807	1592.241	12.0845	-32.77234	0.4244535
58.68201	1590.378	12.13785	-32.74076	0.436954
58.73596	1588.524	12.18283	-32.70991	0.4480085
58.78991	1586.684	12.21559	-32.67984	0.4575359
58.84386	1584.865	12.23226	-32.65059	0.4654626
58.89781	1583.068	12.22972	-32.62217	0.4717284
58.95176	1581.294	12.20642	-32.59457	0.4762904
59.0057	1579.539	12.16214	-32.56771	0.4791096
59.05965	1577.8	12.09852	-32.54148	0.4801488
59.1136	1576.077	12.02069	-32.51572	0.4793729
59.16755	1574.365	11.93709	-32.49025	0.4767464
59.2215	1572.662	11.85452	-32.46487	0.4722464
59.27544	1570.97	11.77565	-32.43936	0.4658705
59.32939	1569.289	11.6987	-32.41351	0.4576179
59.38334	1567.621	11.62061	-32.38706	0.4475025
59.43729	1565.969	11.53974	-32.3598	0.4355477
59.49124	1564.335	11.45598	-32.33149	0.4217888
59.54519	1562.719	11.36878	-32.30193	0.4062846
59.59913	1561.12	11.27815	-32.27096	0.3891176
59.65308	1559.535	11.18552	-32.23844	0.3704051
59.70703	1557.957	11.09214	-32.20428	0.3502939
59.76098	1556.377	10.99948	-32.16844	0.328957
59.81493	1554.788	10.90915	-32.13091	0.3065923
59.86887	1553.185	10.82381	-32.09172	0.2834175
59.92282	1551.565	10.74697	-32.05096	0.2596793
59.97677	1549.932	10.68261	-32.00872	0.2356497
60.03072	1548.284	10.6345	-31.96513	0.2116072
60.08467	1546.621	10.60423	-31.92029	0.1878354
60.13861	1544.941	10.58896	-31.87436	0.1646114
60.19257	1543.245	10.58292	-31.82745	0.1422136
60.24651	1541.535	10.58045	-31.77974	0.1209295
60.30046	1539.812	10.57867	-31.73138	0.1010609
60.35441	1538.078	10.57516	-31.68253	0.08293982
60.40836	1536.331	10.56936	-31.63334	0.06692785
60.46231	1534.57	10.56263	-31.58394	0.05342941
60.51625	1532.797	10.55598	-31.53444	0.04286877
60.5702	1531.013	10.54808	-31.48493	0.03554414
60.62415	1529.217	10.53922	-31.43547	0.03131342
60.6781	1527.407	10.53339	-31.38612	0.0293473
60.73205	1525.587	10.53471	-31.33691	0.02840625
60.786	1523.758	10.54448	-31.28784	0.02740193
60.83994	1521.924	10.56213	-31.23889	0.02563059
60.89389	1520.089	10.58561	-31.19001	0.02274339
60.94784	1518.258	10.61216	-31.14112	0.01864534
61.00179	1516.434	10.6403	-31.09208	0.01349133
61.05574	1514.624	10.67086	-31.04274	0.008057519
61.10968	1512.828	10.70546	-30.99292	0.006560324
61.16363	1511.047	10.74739	-30.94238	0.01251863
61.21758	1509.28	10.79855	-30.89087	0.02081238
61.27153	1507.523	10.85966	-30.83812	0.02970787
61.32548	1505.773	10.92953	-30.78385	0.03869412
61.37943	1504.031	11.00648	-30.72775	0.04747171
61.43337	1502.297	11.09167	-30.66954	0.0558201
61.48732	1500.578	11.18677	-30.60888	0.06356648
61.54127	1498.877	11.29143	-30.54549	0.07057775
61.59522	1497.198	11.40548	-30.47908	0.07677928
61.64917	1495.545	11.52874	-30.40938	0.08214018
61.70311	1493.918	11.66109	-30.33615	0.08670154
61.75706	1492.314	11.79981	-30.25916	0.09056985
61.81101	1490.73	11.93692	-30.17822	0.09394334
61.86496	1489.162	12.06257	-30.09317	0.09710123
61.91891	1487.607	12.16977	-30.0039	0.1004331
61.97285	1486.065	12.25282	-29.91031	0.1044009
62.0268	1484.532	12.3081	-29.81231	0.1095186
62.08075	1483.005	12.33508	-29.70984	0.1162853
62.1347	1481.479	12.33389	-29.60285	0.1251207
62.18865	1479.949	12.30611	-29.49125	0.1363144
62.2426	1478.415	12.25449	-29.37499	0.1500018
62.29654	1476.879	12.18072	-29.25399	0.1661886
62.35049	1475.342	12.08724	-29.12818	0.1847719
62.40444	1473.802	11.97868	-28.99748	0.2055888
62.45839	1472.258	11.86039	-28.86182	0.2284436
62.51234	1470.711	11.73521	-28.72109	0.2531253
62.56628	1469.162	11.6044	-28.57517	0.2794174
62.62024	1467.612	11.47227	-28.42392	0.3071056
62.67418	1466.064	11.34329	-28.26718	0.335977
62.72813	1464.521	11.22208	-28.10476	0.3658262
62.78208	1462.983	11.11071	-27.93645	0.3964563
62.83603	1461.445	11.00832	-27.76199	0.4276678
62.88998	1459.903	10.91125	-27.58112	0.4592649
62.94392	1458.355	10.81756	-27.39352	0.4910441
62.99787	1456.804	10.72571	-27.19886	0.5228056
63.05182	1455.253	10.63489	-26.9968	0.5543494
63.10577	1453.707	10.54655	-26.78696	0.585489
63.15972	1452.173	10.4639	-26.56895	0.6160565
63.21367	1450.655	10.38908	-26.34235	0.6458965
63.26761	1449.154	10.32388	-26.10675	0.6748551
63.32156	1447.667	10.26815	-25.86171	0.7027928
63.37551	1446.195	10.22379	-25.60679	0.7295684
63.42946	1444.74	10.195	-25.34155	0.7550589
63.48341	1443.302	10.18533	-25.06556	0.7791595
63.53735	1441.88	10.19373	-24.77839	0.8017933
63.5913	1440.474	10.21579	-24.47959	0.8229299
63.64525	1439.081	10.24533	-24.16875	0.8425555
63.6992	1437.699	10.27954	-23.84542	0.8606784
63.75315	1436.322	10.31673	-23.50918	0.8773374
63.80709	1434.948	10.3541	-23.15964	0.8925778
63.86104	1433.57	10.38631	-22.79639	0.9064687
63.91499	1432.188	10.40731	-22.41907	0.9190982
63.96894	1430.802	10.41297	-22.02729	0.9305834
64.02289	1429.413	10.40148	-21.62069	0.9410773
64.07684	1428.025	10.37228	-21.19888	0.9507315
64.13078	1426.641	10.32689	-20.76142	0.9597052
64.18473	1425.266	10.26841	-20.30789	0.9681738
64.23868	1423.91	10.20013	-19.83779	0.9763066
64.29263	1422.578	10.1264	-19.35061	0.9842623
64.34657	1421.276	10.05211	-18.84584	0.9921762
64.40053	1420.004	9.981119	-18.32292	1.000155
64.45448	1418.761	9.915196	-17.7813	1.008307
64.50842	1417.548	9.854133	-17.22041	1.01669
64.56237	1416.367	9.797093	-16.63965	1.025338
64.61632	1415.219	9.741858	-16.03841	1.034289
64.67027	1414.11	9.686931	-15.41607	1.043565
64.72421	1413.048	9.630678	-14.77199	1.053186
64.77816	1412.036	9.56883	-14.10549	1.063166
64.83211	1411.077	9.497025	-13.41589	1.073505
64.88605	1410.173	9.415803	-12.70252	1.084212
64.94001	1409.323	9.328387	-11.96468	1.095275
64.99396	1408.53	9.240253	-11.20167	1.106656
65.0479	1407.791	9.156902	-10.41279	1.118336
65.10185	1407.107	9.08321	-9.59735	1.130267
65.1558	1406.472	9.022069	-8.754658	1.142419
65.20975	1405.883	8.974979	-7.884027	1.154747
65.26369	1405.338	8.942368	-6.984783	1.16718
65.31764	1404.836	8.924449	-6.05625	1.179674
65.37159	1404.377	8.919248	-5.09775	1.192152
65.42554	1403.958	8.924133	-4.108608	1.204519
65.47949	1403.578	8.934676	-3.088181	1.216708
65.53344	1403.236	8.947112	-2.035837	1.228644
65.58739	1402.936	8.955975	-0.9509553	1.24025
65.64133	1402.678	8.954487	0.1670755	1.251442
65.69528	1402.469	8.93682	1.318853	1.26211
65.74923	1402.31	8.901917	2.504947	1.272169
65.80318	1402.205	8.849441	3.725925	1.281523
65.85712	1402.154	8.780437	4.982347	1.290069
65.91107	1402.162	8.70012	6.274772	1.297802
65.96502	1402.229	8.613889	7.603718	1.304719
66.01897	1402.35	8.525088	8.969729	1.310893
66.07292	1402.521	8.436037	10.37335	1.316422
66.12687	1402.739	8.348481	11.81514	1.321418
66.18082	1403.006	8.262229	13.29568	1.32605
66.23476	1403.325	8.176711	14.81554	1.330473
66.28871	1403.702	8.09235	16.37537	1.334823
66.34266	1404.142	8.007281	17.97578	1.339261
66.39661	1404.651	7.918397	19.61741	1.343933
66.45055	1405.234	7.822531	21.30093	1.348966
66.5045	1405.903	7.716668	23.02698	1.354462
66.55846	1406.665	7.599208	24.79625	1.360476
66.6124	1407.529	7.471469	26.60942	1.367117
66.66635	1408.499	7.337157	28.46715	1.374349
66.7203	1409.579	7.200796	30.37012	1.382195
66.77425	1410.774	7.066606	32.319	1.390645
66.82819	1412.083	6.938934	34.31445	1.39968
66.88214	1413.502	6.820522	36.35711	1.409264
66.93609	1415.028	6.714338	38.44762	1.419367
66.99004	1416.662	6.624009	40.58657	1.429941
67.04398	1418.405	6.553092	42.77452	1.440935
67.09794	1420.257	6.503711	45.01199	1.452303
67.15189	1422.219	6.47349	47.29942	1.46398
67.20583	1424.294	6.456189	49.63722	1.475922
67.25978	1426.489	6.443038	52.02574	1.488068
67.31373	1428.816	6.427025	54.46529	1.500372
67.36768	1431.284	6.40472	56.95611	1.512791
67.42162	1433.902	6.376035	59.4984	1.525308
67.47557	1436.671	6.341827	62.09233	1.537909
67.52952	1439.591	6.304243	64.738	1.550607
67.58347	1442.66	6.266169	67.43549	1.563407
67.63742	1445.881	6.229126	70.18483	1.576301
67.69137	1449.248	6.194191	72.98602	1.589288
67.74532	1452.758	6.160854	75.83899	1.602368
67.79926	1456.406	6.127132	78.74365	1.615551
67.85321	1460.192	6.093739	81.69986	1.628861
67.90716	1464.12	6.062522	84.7074	1.642325
67.96111	1468.193	6.035148	87.766	1.655996
68.01505	1472.417	6.012525	90.87534	1.66993
68.069	1476.799	5.99462	94.035	1.684178
68.12295	1481.351	5.979126	97.24454	1.698787
68.1769	1486.089	5.963404	100.5034	1.713792
68.23085	1491.023	5.948401	103.8111	1.729235
68.2848	1496.163	5.936906	107.167	1.74515
68.33875	1501.514	5.929867	110.5704	1.761583
68.39269	1507.081	5.926196	114.0207	1.7786
68.44664	1512.865	5.923867	117.5171	1.796265
68.50059	1518.866	5.919491	121.059	1.814623
68.55453	1525.079	5.909693	124.6455	1.833705
68.60848	1531.499	5.889989	128.276	1.853511
68.66243	1538.122	5.857566	131.9496	1.874027
68.71638	1544.948	5.812532	135.6655	1.895249
68.77033	1551.98	5.759053	139.4226	1.917187
68.82428	1559.22	5.702618	143.2202	1.939835
68.87823	1566.673	5.649141	147.0571	1.963213
68.93217	1574.341	5.60192	150.9321	1.987317
68.98612	1582.23	5.561325	154.8442	2.01215
69.04007	1590.344	5.52891	158.792	2.03772
69.09402	1598.684	5.507386	162.7739	2.06398
69.14796	1607.254	5.500151	166.7883	2.090904
69.20191	1616.052	5.507113	170.8334	2.118435
69.25587	1625.076	5.52372	174.9072	2.146484
69.30981	1634.327	5.545329	179.0073	2.174941
69.36376	1643.806	5.569914	183.1313	2.203684
69.41771	1653.51	5.596277	187.2764	2.232576
69.47166	1663.441	5.622342	191.4395	2.261458
69.5256	1673.6	5.645491	195.6172	2.290153
69.57955	1683.99	5.663704	199.8059	2.318466
69.6335	1694.612	5.678803	204.0017	2.346174
69.68745	1705.467	5.695776	208.2003	2.372991
69.74139	1716.56	5.720868	212.3971	2.398631
69.79534	1727.896	5.758909	216.5872	2.422754
69.8493	1739.484	5.811722	220.7653	2.44503
69.90324	1751.326	5.879201	224.9257	2.465079
69.95719	1763.428	5.960763	229.0624	2.482528
70.01114	1775.794	6.056267	233.169	2.496973
70.06509	1788.431	6.165005	237.2386	2.508029
70.11903	1801.341	6.284064	241.2641	2.515279
70.17298	1814.527	6.406365	245.2381	2.518327
70.22693	1827.986	6.524122	249.1528	2.516778
70.28088	1841.714	6.628778	253.0001	2.510277
70.33482	1855.707	6.715069	256.7719	2.498468
70.38878	1869.963	6.781498	260.4598	2.481055
70.44273	1884.477	6.830251	264.0551	2.457786
70.49667	1899.246	6.864619	267.5491	2.428442
70.55062	1914.262	6.886985	270.9333	2.392805
70.60457	1929.522	6.900965	274.1988	2.350755
70.65852	1945.024	6.912014	277.3369	2.30223
70.71246	1960.771	6.925421	280.3391	2.247217
70.76641	1976.766	6.946071	283.1969	2.185751
70.82036	1993.014	6.977135	285.9022	2.117967
70.87431	2009.515	7.020604	288.4468	2.043982
70.92826	2026.268	7.07517	290.8232	1.963999
70.98221	2043.271	7.135649	293.0242	1.878281
71.03616	2060.525	7.192932	295.0427	1.787164
71.0901	2078.032	7.239692	296.8726	1.691021
71.14405	2095.789	7.270008	298.508	1.590343
71.198	2113.784	7.280649	299.9436	1.485804
71.25195	2132.008	7.273487	301.1747	1.378216
71.30589	2150.451	7.255666	302.1971	1.268696
71.35984	2169.103	7.23735	303.0076	1.158647
71.41379	2187.954	7.226981	303.603	1.050023
71.46774	2206.999	7.23353	303.9813	0.9454445
71.52169	2226.23	7.265184	304.1406	0.848732
71.57564	2245.639	7.323136	304.0801	0.7651065
71.62959	2265.212	7.404482	303.7994	0.7013596
71.68353	2284.935	7.502955	303.2987	0.6650314
71.73748	2304.789	7.611522	302.5789	0.6619186
71.79143	2324.748	7.722287	301.6414	0.6932167
71.84538	2344.78	7.825254	300.4883	0.7548712
71.89932	2364.843	7.91226	299.122	0.839994
71.95327	2384.89	7.97805	297.5456	0.9417481
72.00723	2404.878	8.022241	295.7625	1.054599
72.06117	2424.767	8.046511	293.7766	1.174481
72.11512	2444.522	8.054765	291.5923	1.298509
72.16907	2464.114	8.050581	289.2142	1.424583
72.22301	2483.511	8.036562	286.6472	1.551166
72.27696	2502.681	8.013153	283.8966	1.677099
72.33091	2521.59	7.984855	280.9681	1.801508
72.38486	2540.204	7.958301	277.8674	1.923704
72.4388	2558.483	7.940041	274.6006	2.043143
72.49275	2576.391	7.930746	271.174	2.159377
72.54671	2593.891	7.928098	267.5942	2.272054
72.60065	2610.949	7.927191	263.8679	2.380882
72.6546	2627.535	7.924853	260.002	2.485533
72.70855	2643.625	7.917441	256.0034	2.585779
72.7625	2659.202	7.902483	251.8796	2.681384
72.81644	2674.259	7.87867	247.6378	2.772145
72.87039	2688.786	7.850004	243.2858	2.857837
72.92434	2702.783	7.821154	238.8311	2.93826
72.97829	2716.25	7.800675	234.2819	3.013216
73.03223	2729.196	7.798937	229.6461	3.082505
73.08619	2741.626	7.82653	224.9323	3.14595
73.14014	2753.544	7.893971	220.1489	3.20338
73.19408	2764.952	8.010613	215.3046	3.254602
73.24803	2775.858	8.181316	210.4083	3.299451
73.30198	2786.268	8.403921	205.4691	3.337752
73.35593	2796.193	8.667437	200.4962	3.369334
73.40987	2805.64	8.955355	195.4989	3.394064
73.46382	2814.623	9.251968	190.4866	3.411813
73.51777	2823.157	9.546687	185.4688	3.422429
73.57172	2831.266	9.82855	180.455	3.425775
73.62567	2838.975	10.08528	175.4545	3.42171
73.67962	2846.315	10.30966	170.4767	3.4101
73.73357	2853.32	10.49794	165.531	3.39083
73.78751	2860.027	10.64782	160.6265	3.363871
73.84146	2866.469	10.76043	155.772	3.329215
73.89541	2872.671	10.84221	150.9761	3.286912
73.94936	2878.644	10.89771	146.2474	3.237077
74.0033	2884.395	10.93	141.5935	3.179862
74.05725	2889.925	10.94176	137.0222	3.115475
74.1112	2895.24	10.93635	132.5404	3.044177
74.16515	2900.356	10.91479	128.1545	2.966282
74.2191	2905.286	10.87284	123.8705	2.882114
74.27305	2910.048	10.80485	119.6935	2.792068
74.327	2914.66	10.7044	115.6282	2.696564
74.38094	2919.145	10.56752	111.6785	2.596093
74.43489	2923.519	10.3954	107.8476	2.491175
74.48884	2927.8	10.19112	104.1381	2.382407
74.54279	2931.996	9.958449	100.5519	2.270427
74.59673	2936.111	9.70435	97.0901	2.155902
74.65068	2940.134	9.439643	93.75323	2.039551
74.70464	2944.055	9.179275	90.54109	1.922119
74.75858	2947.859	8.936881	87.45296	1.804391
74.81253	2951.535	8.721686	84.48755	1.687178
74.86648	2955.076	8.538703	81.64305	1.571293
74.92043	2958.485	8.393345	78.91721	1.457562
74.97437	2961.768	8.288052	76.30741	1.346782
75.02832	2964.936	8.219155	73.8106	1.239731
75.08227	2968	8.179724	71.42348	1.137139
75.13622	2970.963	8.164425	69.14246	1.039691
75.19016	2973.832	8.167255	66.96375	0.948007
75.24412	2976.617	8.185423	64.88339	0.8626023
75.29807	2979.329	8.221084	62.89732	0.7838843
75.35201	2981.976	8.272871	61.0014	0.7120838
75.40596	2984.56	8.335278	59.1915	0.6472373
75.45991	2987.078	8.403543	57.46349	0.5891365
75.51385	2989.529	8.474858	55.81332	0.5373086
75.5678	2991.914	8.551028	54.23707	0.4910249
75.62175	2994.24	8.638476	52.73093	0.4493475
75.6757	2996.51	8.744299	51.29132	0.4112017
75.72964	2998.728	8.870953	49.91479	0.3754571
75.7836	3000.906	9.016581	48.59811	0.3410276
75.83755	3003.054	9.179016	47.3382	0.3069689
75.89149	3005.184	9.350093	46.13218	0.2725656
75.94544	3007.308	9.519787	44.97734	0.2374658
75.99939	3009.434	9.679021	43.87113	0.201862
76.05334	3011.558	9.82108	42.81113	0.1668973
76.10728	3013.677	9.942212	41.79506	0.1355771
76.16123	3015.792	10.04129	40.82072	0.1144828
76.21518	3017.901	10.11814	39.886	0.1133078
76.26913	3019.995	10.16976	38.98888	0.1353901
76.32308	3022.063	10.19355	38.1274	0.1738175
76.37703	3024.096	10.18799	37.29965	0.2211897
76.43098	3026.091	10.15424	36.50378	0.2732615
76.48492	3028.047	10.09597	35.73793	0.3276964
76.53887	3029.966	10.02075	35.00025	0.383033
76.59282	3031.848	9.934436	34.28887	0.4382057
76.64677	3033.688	9.842764	33.60194	0.4923614
76.70071	3035.479	9.750255	32.93761	0.5447845
76.75466	3037.211	9.657342	32.29412	0.5948737
76.80861	3038.873	9.559139	31.66974	0.6421329
76.86256	3040.46	9.452202	31.06285	0.686164
76.91651	3041.969	9.33549	30.47194	0.7266512
76.97046	3043.402	9.209655	29.8956	0.7633623
77.02441	3044.762	9.079131	29.33258	0.7961221
77.07835	3046.052	8.952004	28.78173	0.824824
77.1323	3047.277	8.833093	28.24207	0.8494219
77.18625	3048.446	8.727551	27.71278	0.869927
77.2402	3049.566	8.64409	27.19319	0.8863953
77.29414	3050.653	8.592586	26.68275	0.8989102
77.34809	3051.716	8.579999	26.18106	0.9075842
77.40205	3052.765	8.606756	25.68784	0.9125529
77.45599	3053.805	8.665555	25.20293	0.9139763
77.50994	3054.842	8.744743	24.72632	0.9120422
77.56389	3055.877	8.834771	24.25817	0.9069753
77.61784	3056.914	8.926534	23.79877	0.8990256
77.67178	3057.955	9.013852	23.34855	0.8884553
77.72573	3059.004	9.093969	22.90805	0.8755271
77.77968	3060.069	9.169227	22.47787	0.8604871
77.83363	3061.156	9.244555	22.05868	0.8435441
77.88757	3062.27	9.327116	21.65116	0.8248735
77.94153	3063.417	9.423818	21.25599	0.8046166
77.99548	3064.598	9.540029	20.87388	0.7828737
78.04942	3065.809	9.681492	20.50545	0.75971
78.10337	3067.05	9.852832	20.15129	0.7351535
78.15732	3068.323	10.05902	19.81189	0.7091962
78.21127	3069.627	10.29796	19.48768	0.681816
78.26521	3070.948	10.56371	19.17897	0.6529768
78.31916	3072.27	10.84329	18.886	0.6226338
78.37311	3073.573	11.11989	18.60886	0.5907352
78.42706	3074.843	11.37733	18.34751	0.5572479
78.48101	3076.068	11.60298	18.10177	0.522191
78.53496	3077.24	11.78963	17.87131	0.4856697
78.58891	3078.356	11.93954	17.65567	0.4479173
78.64285	3079.413	12.06075	17.45424	0.4093446
78.6968	3080.407	12.16164	17.26626	0.3706461
78.75075	3081.333	12.25136	17.09092	0.3329517
78.8047	3082.184	12.34108	16.92729	0.2980811
78.85864	3082.963	12.43749	16.77444	0.2688321
78.91259	3083.674	12.54104	16.6314	0.2490811
78.96654	3084.321	12.64778	16.49725	0.2430676
79.02048	3084.902	12.75099	16.37111	0.253508
79.07444	3085.416	12.84123	16.25221	0.2799799
79.12839	3085.863	12.90675	16.13989	0.3195815
79.18233	3086.255	12.9377	16.03368	0.3688349
79.23628	3086.606	12.92673	15.93326	0.4248438
79.29023	3086.934	12.87286	15.8385	0.48548
79.34418	3087.258	12.78002	15.7494	0.549221
79.39812	3087.597	12.65497	15.66614	0.6149649
79.45207	3087.965	12.50651	15.58906	0.6818862
79.50602	3088.377	12.34338	15.51863	0.749355
79.55997	3088.839	12.16967	15.45546	0.8168736
79.61392	3089.348	11.9871	15.40026	0.8840389
79.66787	3089.902	11.8006	15.35386	0.9504965
79.72182	3090.501	11.61852	15.31713	1.015935
79.77576	3091.148	11.44422	15.29098	1.080078
79.82971	3091.84	11.27423	15.2763	1.142691
79.88366	3092.574	11.10025	15.27398	1.203549
79.93761	3093.352	10.91121	15.28485	1.262431
79.99155	3094.171	10.70139	15.30965	1.319127
80.0455	3095.033	10.46962	15.34905	1.373432
80.09945	3095.943	10.22143	15.40359	1.425155
80.1534	3096.907	9.967237	15.47367	1.474119
80.20735	3097.926	9.7161	15.55955	1.520155
80.2613	3098.996	9.477872	15.66134	1.563116
80.31525	3100.106	9.257533	15.77899	1.602884
80.36919	3101.241	9.053777	15.91227	1.639372
80.42314	3102.378	8.85943	16.06079	1.672507
80.47709	3103.499	8.666999	16.22397	1.702227
80.53104	3104.583	8.473003	16.40106	1.728474
80.58498	3105.614	8.277957	16.59108	1.751209
80.63893	3106.586	8.082502	16.79291	1.770402
80.69289	3107.491	7.885624	17.00517	1.786039
80.74683	3108.33	7.692606	17.22634	1.7981
80.80078	3109.115	7.511992	17.45471	1.806562
80.85473	3109.862	7.348588	17.68847	1.811401
80.90868	3110.593	7.206065	17.92569	1.812586
80.96262	3111.321	7.088538	18.16434	1.810091
81.01657	3112.056	7.00378	18.40234	1.803895
81.07052	3112.801	6.958747	18.6376	1.793995
81.12447	3113.558	6.957444	18.86811	1.780416
81.17841	3114.321	6.998149	19.09192	1.763198
81.23237	3115.085	7.071989	19.30723	1.742404
81.28632	3115.848	7.168815	19.51241	1.718109
81.34026	3116.612	7.279975	19.70599	1.690428
81.39421	3117.38	7.401608	19.88674	1.659512
81.44816	3118.162	7.532146	20.0536	1.625559
81.50211	3118.975	7.668057	20.20576	1.588831
81.55605	3119.832	7.802181	20.34261	1.549665
81.61	3120.741	7.927906	20.46378	1.508473
81.66395	3121.718	8.044833	20.56906	1.465725
81.7179	3122.779	8.156443	20.65843	1.421944
81.77185	3123.935	8.26546	20.73198	1.3777
81.8258	3125.188	8.373225	20.78994	1.333589
81.87975	3126.535	8.478442	20.8326	1.290205
81.93369	3127.966	8.57756	20.86031	1.248111
81.98764	3129.467	8.664535	20.87345	1.207792
82.04159	3131.022	8.732794	20.87243	1.169627
82.09554	3132.611	8.77687	20.85766	1.133854
82.14948	3134.217	8.79107	20.82954	1.100542
82.20343	3135.826	8.779375	20.7884	1.069582
82.25738	3137.434	8.751705	20.73454	1.040712
82.31133	3139.034	8.715596	20.66816	1.013546
82.36528	3140.63	8.67098	20.58938	0.9876012
82.41923	3142.22	8.612487	20.49823	0.9623076
82.47318	3143.806	8.535786	20.3946	0.9370515
82.52712	3145.383	8.440155	20.27828	0.9111988
82.58107	3146.952	8.324352	20.14894	0.8841361
82.63502	3148.512	8.187097	20.00609	0.8552951
82.68896	3150.058	8.034167	19.84912	0.8241977
82.74291	3151.578	7.877127	19.67732	0.7904676
82.79686	3153.068	7.727188	19.48983	0.753843
82.85081	3154.525	7.590725	19.28574	0.7141753
82.90476	3155.944	7.468894	19.06404	0.6714457
82.95871	3157.319	7.359524	18.82364	0.6257812
83.01266	3158.645	7.26006	18.56338	0.5774793
83.0666	3159.92	7.175164	18.28207	0.5270056
83.12055	3161.146	7.115112	17.97849	0.475018
83.1745	3162.319	7.085898	17.65146	0.4223931
83.22845	3163.44	7.088946	17.29985	0.3703057
83.28239	3164.504	7.12251	16.92262	0.3203585
83.33634	3165.511	7.183672	16.51885	0.2748319
83.3903	3166.458	7.268977	16.08775	0.2369702
83.44424	3167.353	7.374534	15.6287	0.2109736
83.49819	3168.2	7.496893	15.14126	0.2007424
83.55214	3169.001	7.63552	14.62521	0.2072036
83.60609	3169.753	7.792296	14.08051	0.2271508
83.66003	3170.459	7.965346	13.50735	0.2555222
83.71398	3171.121	8.151578	12.90613	0.2879215
83.76793	3171.743	8.345445	12.27744	0.3213308
83.82188	3172.324	8.545182	11.62205	0.3538732
83.87582	3172.868	8.751628	10.94088	0.3844568
83.92978	3173.376	8.966991	10.23499	0.4125251
83.98373	3173.854	9.19461	9.505554	0.4378831
84.03767	3174.303	9.429571	8.75385	0.4606133
84.09162	3174.728	9.656169	7.981262	0.4810082
84.14557	3175.135	9.857853	7.189243	0.4995323
84.19952	3175.537	10.02482	6.379286	0.5167972
84.25346	3175.94	10.15482	5.552889	0.5335293
84.30741	3176.352	10.2484	4.71156	0.5505298
84.36136	3176.777	10.30467	3.856789	0.5686191
84.41531	3177.211	10.31816	2.990055	0.5885764
84.46926	3177.644	10.28535	2.112809	0.6110916
84.52321	3178.065	10.20299	1.226493	0.6367203
84.57716	3178.47	10.06793	0.3324952	0.6658519
84.6311	3178.855	9.883508	-0.5678436	0.6986743
84.68505	3179.213	9.654922	-1.473277	0.7351717
84.739	3179.536	9.391423	-2.382636	0.7751469
84.79295	3179.815	9.104783	-3.294847	0.8182673
84.84689	3180.046	8.808482	-4.208886	0.8640801
84.90084	3180.221	8.512045	-5.123819	0.9120559
84.95479	3180.33	8.219343	-6.038782	0.9616241
85.00874	3180.363	7.930833	-6.95301	1.012215
85.06269	3180.315	7.646473	-7.865815	1.063273
85.11664	3180.187	7.363914	-8.776618	1.114276
85.17059	3179.969	7.084767	-9.684903	1.164743
85.22453	3179.651	6.817076	-10.59022	1.214227
85.27848	3179.222	6.572977	-11.49214	1.2623
85.33243	3178.672	6.360907	-12.39028	1.308546
85.38638	3177.999	6.17956	-13.28426	1.352538
85.44032	3177.207	6.026374	-14.17372	1.393852
85.49427	3176.298	5.90097	-15.05828	1.432077
85.54823	3175.272	5.80762	-15.9376	1.466835
85.60217	3174.132	5.750578	-16.8113	1.497784
85.65612	3172.888	5.730279	-17.67901	1.524619
85.71007	3171.553	5.742122	-18.54035	1.547069
85.76402	3170.149	5.783195	-19.39492	1.564903
85.81796	3168.696	5.84914	-20.24229	1.577925
85.87191	3167.216	5.936165	-21.08203	1.585994
85.92586	3165.721	6.041565	-21.91366	1.589001
85.9798	3164.213	6.164694	-22.73668	1.586887
86.03375	3162.681	6.305491	-23.5506	1.57964
86.08771	3161.112	6.461275	-24.35489	1.567296
86.14165	3159.489	6.625077	-25.14901	1.54993
86.1956	3157.806	6.791912	-25.93247	1.527671
86.24955	3156.056	6.961405	-26.70481	1.5007
86.3035	3154.25	7.134471	-27.46559	1.469277
86.35744	3152.392	7.307739	-28.21445	1.433737
86.41139	3150.493	7.473939	-28.95105	1.394485
86.46534	3148.555	7.626516	-29.67507	1.351992
86.51929	3146.586	7.760877	-30.38622	1.306791
86.57323	3144.59	7.879848	-31.08423	1.259475
86.62719	3142.575	7.98878	-31.76891	1.210689
86.68114	3140.547	8.092922	-32.44014	1.161116
86.73508	3138.507	8.192271	-33.09785	1.111459
86.78903	3136.454	8.284691	-33.74207	1.062423
86.84298	3134.384	8.368971	-34.37284	1.014679
86.89693	3132.291	8.450251	-34.99029	0.9688293
86.95087	3130.169	8.535338	-35.59455	0.9253834
87.00482	3128.019	8.625323	-36.18582	0.8847243
87.05877	3125.849	8.711761	-36.76434	0.8470882
87.11272	3123.665	8.780407	-37.33041	0.8125359
87.16667	3121.47	8.816796	-37.8844	0.7809556
87.22062	3119.261	8.808819	-38.42668	0.7520952
87.27457	3117.03	8.752422	-38.95765	0.725572
87.32851	3114.774	8.648954	-39.47774	0.7009088
87.38246	3112.504	8.499565	-39.98731	0.6775586
87.43641	3110.234	8.311023	-40.48674	0.6549626
87.49036	3107.975	8.094234	-40.97636	0.6326018
87.5443	3105.732	7.861136	-41.45647	0.6100572
87.59825	3103.502	7.622759	-41.92736	0.5870165
87.6522	3101.278	7.386753	-42.38927	0.5633001
87.70615	3099.054	7.166826	-42.84241	0.5389083
87.7601	3096.827	6.973706	-43.28698	0.5140241
87.81405	3094.599	6.811425	-43.72313	0.4890272
87.868	3092.375	6.678919	-44.151	0.4645069
87.92194	3090.161	6.571283	-44.57071	0.4412341
87.97589	3087.961	6.479125	-44.98233	0.4201472
88.02984	3085.775	6.396161	-45.38591	0.4022601
88.08379	3083.593	6.320183	-45.78149	0.3885802
88.13773	3081.399	6.249144	-46.16908	0.379927
88.19168	3079.18	6.187657	-46.54867	0.3767719
88.24563	3076.922	6.148264	-46.92026	0.3791318
88.29958	3074.613	6.142695	-47.28385	0.38654
88.35353	3072.243	6.178963	-47.63942	0.398163
88.40748	3069.81	6.258084	-47.98695	0.4129665
88.46143	3067.315	6.373192	-48.32639	0.429858
88.51537	3064.765	6.516058	-48.65763	0.4478179
88.56932	3062.165	6.67952	-48.98056	0.4659488
88.62327	3059.526	6.858941	-49.29501	0.4835106
88.67722	3056.852	7.051045	-49.60082	0.499932
88.73116	3054.152	7.24894	-49.89783	0.5148194
88.78511	3051.424	7.443421	-50.18588	0.5279517
88.83907	3048.661	7.626467	-50.46482	0.5392702
88.89301	3045.847	7.793252	-50.73454	0.5488553
88.94696	3042.974	7.945868	-50.99491	0.5569027
89.00091	3040.032	8.089629	-51.24585	0.5637023
89.05486	3037.028	8.22705	-51.48729	0.5696244
89.1088	3033.97	8.358958	-51.7192	0.5750771
89.16275	3030.87	8.481202	-51.94161	0.5804645
89.2167	3027.73	8.588574	-52.15453	0.5861647
89.27065	3024.555	8.678193	-52.35804	0.5924788
89.32459	3021.346	8.745292	-52.55221	0.5996199
89.37855	3018.114	8.783774	-52.73714	0.607713
89.4325	3014.865	8.792192	-52.91297	0.6167852
89.48644	3011.611	8.770098	-53.07983	0.626799
89.54039	3008.356	8.717384	-53.23787	0.6376576
89.59434	3005.113	8.631562	-53.38724	0.6492398
89.64828	3001.881	8.512937	-53.52811	0.6614049
89.70223	2998.665	8.364315	-53.66062	0.6740204
89.75618	2995.456	8.193805	-53.78493	0.6869955
89.81013	2992.25	8.011415	-53.90124	0.7002711
89.86407	2989.042	7.830045	-54.00978	0.7138134
89.91803	2985.84	7.655553	-54.11084	0.7275914
89.97198	2982.649	7.493965	-54.20475	0.7415656
90.02592	2979.483	7.354422	-54.29189	0.7557077
90.07987	2976.345	7.24208	-54.37267	0.7699668
90.13382	2973.242	7.154736	-54.44757	0.7842894
90.18777	2970.176	7.086602	-54.51715	0.7985938
90.24171	2967.148	7.031118	-54.58203	0.8127823
90.29566	2964.147	6.984082	-54.64293	0.8267151
90.34961	2961.167	6.941205	-54.70062	0.8402424
90.40356	2958.193	6.89867	-54.75591	0.8531873
90.45751	2955.225	6.853139	-54.8096	0.8653619
90.51146	2952.259	6.80423	-54.86253	0.8765602
90.56541	2949.301	6.755637	-54.91544	0.8865495
90.61935	2946.352	6.717261	-54.96905	0.8950719
90.6733	2943.415	6.698972	-55.02397	0.9018603
90.72725	2940.494	6.707428	-55.08078	0.906644
90.7812	2937.598	6.745539	-55.13995	0.9091935
90.83514	2934.73	6.813988	-55.20192	0.9093242
90.88909	2931.893	6.908404	-55.26709	0.9069117
90.94304	2929.081	7.021673	-55.33576	0.9018995
90.99699	2926.289	7.145372	-55.40821	0.8943022
91.05094	2923.516	7.272008	-55.48469	0.8842262
91.10489	2920.759	7.395818	-55.56539	0.871877
91.15884	2918.022	7.510772	-55.65048	0.857532
91.21278	2915.306	7.609581	-55.74009	0.8415447
91.26673	2912.609	7.685626	-55.83432	0.8243166
91.32068	2909.927	7.73566	-55.9332	0.8062698
91.37463	2907.254	7.760636	-56.03675	0.7878284
91.42857	2904.579	7.76231	-56.1449	0.7693908
91.48252	2901.896	7.742639	-56.25755	0.7513308
91.53648	2899.198	7.706255	-56.3746	0.733988
91.59042	2896.486	7.657936	-56.49592	0.7176564
91.64437	2893.761	7.600463	-56.62136	0.7025767
91.69832	2891.026	7.534715	-56.75072	0.6889259
91.75227	2888.282	7.463166	-56.88377	0.6768265
91.80621	2885.529	7.386366	-57.02027	0.6663547
91.86016	2882.758	7.304365	-57.15993	0.6575267
91.91411	2879.963	7.22042	-57.30246	0.6503156
91.96806	2877.134	7.143724	-57.44755	0.6446667
92.022	2874.262	7.08535	-57.59489	0.6404931
92.07596	2871.344	7.051148	-57.74414	0.6376857
92.12991	2868.375	7.040547	-57.89501	0.6361263
92.18385	2865.354	7.04811	-58.04719	0.6357024
92.2378	2862.275	7.067581	-58.20039	0.6362925
92.29175	2859.129	7.097232	-58.35435	0.6377904
92.3457	2855.907	7.137229	-58.50885	0.6400874
92.39964	2852.598	7.186565	-58.66363	0.6431495
92.45359	2849.206	7.240387	-58.7862	0.6416313
92.50754	2845.737	7.292376	-58.89848	0.6399047
92.56149	2842.211	7.336378	-59.00401	0.6383013
92.61544	2838.64	7.370615	-59.10595	0.6370336
92.66939	2835.043	7.399173	-59.20652	0.6362077
92.72334	2831.429	7.433167	-59.30713	0.635861
92.77728	2827.81	7.483466	-59.40852	0.6359774
92.83123	2824.191	7.55933	-59.51103	0.6365163
92.88518	2820.584	7.660004	-59.61474	0.6374251
92.93913	2816.993	7.782022	-59.71958	0.6386499
92.99307	2813.419	7.916619	-59.8254	0.6401356
93.04702	2809.853	8.055711	-59.932	0.6418313
93.10097	2806.29	8.191894	-60.03918	0.6436788
93.15492	2802.724	8.319985	-60.14672	0.6456388
93.20887	2799.16	8.434274	-60.25441	0.647659
93.26282	2795.6	8.530251	-60.36204	0.6497027
93.31676	2792.054	8.604808	-60.46943	0.6517329
93.37071	2788.525	8.656205	-60.57639	0.6537138
93.42466	2785.022	8.683491	-60.68277	0.6556164
93.47861	2781.551	8.691725	-60.78838	0.6574143
93.53255	2778.122	8.684525	-60.89309	0.6590875
93.5865	2774.733	8.669909	-60.99675	0.6606116
93.64045	2771.37	8.652264	-61.09923	0.6619786
93.6944	2768.028	8.63387	-61.2004	0.6631697
93.74835	2764.706	8.61611	-61.30014	0.6641852
93.8023	2761.394	8.603143	-61.39836	0.6650202
93.85625	2758.093	8.59709	-61.49493	0.6656777
93.91019	2754.804	8.597545	-61.58978	0.6661611
93.96414	2751.533	8.598241	-61.68281	0.6664765
94.01809	2748.284	8.59385	-61.77395	0.6666357
94.07204	2745.098	8.557061	-61.86313	0.6666493
94.12598	2741.899	8.543966	-61.95031	0.6665294
94.17993	2738.675	8.539567	-62.03542	0.6662896
94.23389	2735.433	8.536594	-62.11844	0.6659405
94.28783	2732.18	8.531807	-62.19933	0.6654994
94.34178	2728.921	8.524529	-62.27806	0.6649775
94.39573	2725.657	8.515191	-62.35463	0.664394
94.44968	2722.391	8.503648	-62.42901	0.6637613
94.50362	2719.124	8.490822	-62.50122	0.663092
94.55757	2715.855	8.477635	-62.57126	0.6624073
94.61152	2712.587	8.464836	-62.63913	0.6617187
94.66547	2709.321	8.453945	-62.70485	0.6610427
94.71941	2706.055	8.445963	-62.76846	0.6603942
94.77337	2702.792	8.441557	-62.82996	0.6597907
94.82732	2699.531	8.44118	-62.88942	0.6592458
94.88126	2696.273	8.445099	-62.94686	0.6587717
94.93521	2693.017	8.453572	-63.00233	0.6583846
94.98916	2689.76	8.467333	-63.0559	0.6580933
