T[Â°C]	330nm [counts / mm]	S.D.	First derivative	S.D. of first derivative
20.00043	3270.925	86.6444	-46.47218	2.360771
20.05438	3268.397	86.55705	-46.42292	2.302799
20.10833	3265.871	86.47092	-46.37375	2.245606
20.16228	3263.347	86.38602	-46.32465	2.189247
20.21623	3260.823	86.30242	-46.27564	2.133777
20.27018	3258.301	86.21998	-46.22672	2.079257
20.32413	3255.78	86.1389	-46.17789	2.02575
20.37808	3253.26	86.05903	-46.12915	1.973322
20.43203	3250.742	85.98022	-46.08051	1.922043
20.48598	3248.225	85.90239	-46.03196	1.871987
20.53993	3245.708	85.82422	-45.9835	1.823226
20.59388	3243.194	85.74544	-45.93513	1.775838
20.64783	3240.68	85.66478	-45.88686	1.729904
20.70178	3238.167	85.58183	-45.83868	1.685505
20.75573	3235.655	85.49598	-45.79059	1.642722
20.80968	3233.143	85.40775	-45.74257	1.601639
20.86363	3230.632	85.31793	-45.69463	1.562339
20.91758	3228.123	85.22839	-45.64675	1.524902
20.97153	3225.62	85.14223	-45.59893	1.489408
21.02548	3223.118	85.0773	-45.55115	1.455934
21.07943	3220.615	85.025	-45.5034	1.424548
21.13338	3218.118	84.98746	-45.45566	1.395316
21.18733	3215.635	84.96667	-45.40791	1.368294
21.24128	3213.172	84.96393	-45.36015	1.343535
21.29523	3210.734	84.97715	-45.31234	1.321076
21.34918	3208.321	84.99896	-45.26447	1.300948
21.40313	3205.933	85.01756	-45.21652	1.283168
21.45708	3203.567	85.02273	-45.16848	1.267733
21.51103	3201.218	85.01084	-45.12032	1.254632
21.56498	3198.878	84.98462	-45.07203	1.243829
21.61893	3196.535	84.94978	-45.02358	1.235286
21.67288	3194.176	84.913	-44.97497	1.228947
21.72683	3191.795	84.88216	-44.92616	1.224741
21.78078	3189.396	84.86159	-44.87716	1.222594
21.83473	3186.985	84.85162	-44.82792	1.222418
21.88868	3184.571	84.84808	-44.77843	1.224124
21.94263	3182.162	84.84702	-44.72868	1.22762
21.99658	3179.765	84.84892	-44.67863	1.232817
22.05053	3177.385	84.85365	-44.6283	1.239629
22.10448	3175.026	84.85635	-44.57766	1.247983
22.15843	3172.684	84.85368	-44.52671	1.257835
22.21238	3170.351	84.84394	-44.47545	1.269166
22.26632	3168.023	84.82475	-44.4239	1.282004
22.32027	3165.692	84.79375	-44.37209	1.296449
22.37423	3163.348	84.74941	-44.32006	1.312706
22.42817	3160.981	84.69738	-44.26793	1.331093
22.48212	3158.585	84.64392	-44.21583	1.352071
22.53607	3156.157	84.59368	-44.16399	1.376198
22.59002	3153.697	84.54733	-44.11274	1.403984
22.64397	3151.213	84.49987	-44.06175	1.430913
22.69792	3148.714	84.4418	-44.01176	1.45694
22.75187	3146.214	84.36513	-43.96289	1.481862
22.80582	3143.723	84.27061	-43.91528	1.505507
22.85977	3141.251	84.16537	-43.86901	1.527736
22.91372	3138.807	84.05513	-43.82415	1.548439
22.96767	3136.39	83.94384	-43.78077	1.567546
23.02162	3133.997	83.83362	-43.73888	1.585025
23.07557	3131.623	83.72604	-43.69849	1.600869
23.12952	3129.265	83.62162	-43.65955	1.615101
23.18347	3126.914	83.51804	-43.62201	1.62776
23.23742	3124.563	83.41212	-43.58577	1.638904
23.29137	3122.205	83.30443	-43.55074	1.648595
23.34532	3119.836	83.19231	-43.5168	1.656885
23.39927	3117.461	83.07104	-43.48382	1.663837
23.45322	3115.088	82.9353	-43.45168	1.66953
23.50717	3112.726	82.78198	-43.42026	1.674024
23.56112	3110.378	82.60825	-43.38941	1.677382
23.61507	3108.047	82.41121	-43.35904	1.679628
23.66902	3105.737	82.19333	-43.32907	1.680781
23.72297	3103.448	81.9612	-43.29943	1.680849
23.77692	3101.177	81.72447	-43.2701	1.67984
23.83087	3098.918	81.4921	-43.24104	1.677748
23.88482	3096.665	81.27325	-43.21222	1.674564
23.93877	3094.412	81.07482	-43.18364	1.67028
23.99272	3092.16	80.89978	-43.1553	1.664885
24.04667	3089.909	80.74718	-43.12723	1.658378
24.10062	3087.657	80.61471	-43.09947	1.650757
24.15457	3085.404	80.49979	-43.07206	1.642036
24.20852	3083.145	80.40095	-43.04507	1.632216
24.26247	3080.878	80.31289	-43.01855	1.621301
24.31642	3078.599	80.22708	-42.99261	1.609278
24.37037	3076.309	80.13894	-42.96733	1.596126
24.42432	3074.01	80.04893	-42.94281	1.581828
24.47827	3071.707	79.9589	-42.91914	1.56636
24.53222	3069.404	79.8733	-42.89644	1.549728
24.58617	3067.102	79.80034	-42.87482	1.531969
24.64012	3064.802	79.74467	-42.8544	1.513135
24.69407	3062.503	79.70407	-42.8353	1.493304
24.74802	3060.205	79.67593	-42.81762	1.47261
24.80197	3057.907	79.66014	-42.80145	1.451212
24.85592	3055.611	79.65868	-42.78686	1.429314
24.90987	3053.315	79.67343	-42.77389	1.407135
24.96382	3051.018	79.70508	-42.76255	1.38492
25.01777	3048.72	79.7513	-42.75287	1.362922
25.07172	3046.425	79.81011	-42.74482	1.341389
25.12567	3044.133	79.8725	-42.73836	1.320567
25.17962	3041.839	79.92548	-42.7334	1.300689
25.23357	3039.535	79.96097	-42.72987	1.281979
25.28752	3037.214	79.97234	-42.72761	1.26466
25.34146	3034.878	79.95388	-42.7265	1.24894
25.39541	3032.537	79.90238	-42.72638	1.235003
25.44937	3030.196	79.82117	-42.72709	1.223
25.50331	3027.857	79.71577	-42.72846	1.213039
25.55726	3025.52	79.58997	-42.73033	1.205186
25.61121	3023.187	79.44973	-42.73256	1.199468
25.66516	3020.864	79.30333	-42.73499	1.195856
25.71911	3018.556	79.15963	-42.73749	1.194279
25.77306	3016.262	79.0256	-42.73991	1.19462
25.82701	3013.977	78.91073	-42.7421	1.196728
25.88096	3011.693	78.82619	-42.74392	1.200407
25.93491	3009.406	78.77498	-42.74524	1.205437
25.98886	3007.113	78.74912	-42.74591	1.211563
26.04281	3004.812	78.73727	-42.74579	1.218538
26.09676	3002.505	78.72973	-42.74475	1.226113
26.15071	3000.194	78.72347	-42.74266	1.234068
26.20466	2997.879	78.71484	-42.73939	1.242203
26.25861	2995.557	78.69825	-42.73483	1.25034
26.31256	2993.232	78.66986	-42.72889	1.258331
26.36651	2990.905	78.6307	-42.7215	1.26604
26.42046	2988.578	78.5841	-42.7126	1.273337
26.47441	2986.254	78.53255	-42.70216	1.280106
26.52836	2983.934	78.48104	-42.69016	1.286225
26.58231	2981.619	78.43544	-42.67662	1.29161
26.63626	2979.305	78.39807	-42.66154	1.29619
26.69021	2976.99	78.36736	-42.64492	1.299918
26.74416	2974.676	78.33946	-42.62673	1.302752
26.79811	2972.361	78.31037	-42.60696	1.304658
26.85206	2970.045	78.27573	-42.5856	1.305593
26.90601	2967.726	78.23133	-42.56262	1.305496
26.95996	2965.405	78.17232	-42.53801	1.304315
27.01391	2963.083	78.0968	-42.51176	1.301989
27.06786	2960.767	78.00162	-42.48385	1.298452
27.12181	2958.457	77.87972	-42.4543	1.293665
27.17576	2956.149	77.72617	-42.42316	1.287593
27.22971	2953.84	77.5459	-42.3905	1.280229
27.28366	2951.53	77.34514	-42.35646	1.271616
27.33761	2949.222	77.12901	-42.32121	1.261826
27.39156	2946.918	76.90582	-42.28495	1.250985
27.44551	2944.622	76.68416	-42.24791	1.239222
27.49946	2942.332	76.4745	-42.21032	1.226696
27.55341	2940.046	76.28482	-42.17241	1.213564
27.60736	2937.766	76.11988	-42.13441	1.199973
27.66131	2935.489	75.98083	-42.09653	1.18604
27.71526	2933.217	75.86481	-42.05896	1.171849
27.76921	2930.951	75.76547	-42.02184	1.157444
27.82316	2928.688	75.67817	-41.98528	1.142841
27.87711	2926.425	75.60163	-41.94941	1.128033
27.93106	2924.159	75.53587	-41.9143	1.11299
27.98501	2921.886	75.48164	-41.87999	1.097689
28.03896	2919.607	75.43801	-41.84649	1.082101
28.09291	2917.321	75.40172	-41.8138	1.066218
28.14686	2915.032	75.3727	-41.78193	1.050052
28.20081	2912.74	75.35331	-41.75085	1.033654
28.25476	2910.446	75.34518	-41.72056	1.017119
28.3087	2908.158	75.34796	-41.69102	1.000576
28.36266	2905.881	75.3604	-41.66219	0.9841772
28.4166	2903.62	75.38199	-41.63398	0.968101
28.47055	2901.378	75.4119	-41.60631	0.9525325
28.5245	2899.157	75.44988	-41.57907	0.937649
28.57845	2896.953	75.4939	-41.55215	0.9236373
28.6324	2894.759	75.53893	-41.52539	0.9106792
28.68635	2892.569	75.5752	-41.49862	0.8989587
28.7403	2890.376	75.59457	-41.47167	0.8886417
28.79425	2888.175	75.59336	-41.44433	0.8798587
28.8482	2885.966	75.57007	-41.41642	0.8727065
28.90215	2883.75	75.52583	-41.38774	0.8672615
28.9561	2881.531	75.46602	-41.35811	0.8635845
29.01005	2879.317	75.40017	-41.32738	0.8617186
29.064	2877.113	75.33875	-41.29539	0.8616728
29.11795	2874.921	75.28787	-41.26205	0.8634591
29.1719	2872.743	75.24967	-41.22726	0.8670654
29.22585	2870.584	75.22352	-41.19104	0.8724903
29.2798	2868.442	75.20432	-41.15346	0.8797215
29.33375	2866.311	75.18585	-41.11463	0.8887755
29.3877	2864.188	75.16511	-41.07474	0.8996621
29.44165	2862.07	75.14366	-41.03401	0.9124004
29.4956	2859.952	75.12262	-40.99267	0.9269863
29.54955	2857.83	75.10134	-40.951	0.9433876
29.6035	2855.7	75.07964	-40.90928	0.9615248
29.65745	2853.557	75.05949	-40.86779	0.9812747
29.7114	2851.395	75.04167	-40.82681	1.002479
29.76535	2849.205	75.02441	-40.78664	1.024958
29.8193	2846.978	75.00504	-40.74754	1.048502
29.87325	2844.713	74.98358	-40.70977	1.072878
29.9272	2842.415	74.96162	-40.67358	1.097831
29.98115	2840.094	74.94507	-40.63918	1.123108
30.0351	2837.764	74.93748	-40.60674	1.148461
30.08905	2835.433	74.93587	-40.57641	1.173632
30.143	2833.11	74.93528	-40.54831	1.198377
30.19695	2830.796	74.93235	-40.52253	1.222474
30.2509	2828.492	74.92496	-40.49911	1.245743
30.30485	2826.199	74.9101	-40.47804	1.268046
30.3588	2823.916	74.88357	-40.45926	1.289289
30.41275	2821.644	74.84026	-40.44268	1.309397
30.4667	2819.384	74.77474	-40.42813	1.32832
30.52065	2817.137	74.68329	-40.41547	1.346015
30.5746	2814.903	74.56595	-40.4045	1.362442
30.62855	2812.679	74.42221	-40.39502	1.377549
30.6825	2810.463	74.25388	-40.38683	1.391277
30.73645	2808.254	74.06651	-40.37968	1.403565
30.7904	2806.051	73.86252	-40.37337	1.414331
30.84435	2803.858	73.64701	-40.36766	1.423492
30.8983	2801.682	73.42784	-40.36234	1.430974
30.95225	2799.534	73.21323	-40.35719	1.436704
31.0062	2797.42	73.0108	-40.35197	1.440634
31.06015	2795.344	72.82552	-40.34651	1.442723
31.1141	2793.304	72.65918	-40.34061	1.442944
31.16805	2791.298	72.51192	-40.33409	1.441274
31.222	2789.319	72.38339	-40.32683	1.437712
31.27595	2787.356	72.26817	-40.31871	1.432293
31.3299	2785.396	72.16358	-40.30967	1.425072
31.38384	2783.426	72.06947	-40.2997	1.416142
31.4378	2781.432	71.9831	-40.2888	1.405604
31.49174	2779.402	71.89642	-40.277	1.393581
31.54569	2777.329	71.80325	-40.26439	1.380189
31.59964	2775.216	71.70444	-40.25107	1.365552
31.65359	2773.069	71.60378	-40.23717	1.349788
31.70754	2770.9	71.50249	-40.2229	1.333025
31.76149	2768.717	71.40215	-40.20844	1.315396
31.81544	2766.525	71.30708	-40.19401	1.297039
31.86939	2764.329	71.21873	-40.17984	1.278099
31.92334	2762.127	71.13714	-40.16614	1.25872
31.97729	2759.924	71.06406	-40.15312	1.239058
32.03124	2757.72	71.00246	-40.14094	1.219252
32.08519	2755.522	70.95333	-40.12974	1.199441
32.13914	2753.327	70.92147	-40.11962	1.179739
32.19309	2751.132	70.90672	-40.11058	1.160273
32.24704	2748.93	70.90292	-40.10258	1.141182
32.30099	2746.716	70.9	-40.0955	1.122627
32.35494	2744.486	70.89006	-40.08917	1.1048
32.40889	2742.24	70.86771	-40.08338	1.087895
32.46284	2739.979	70.83182	-40.07795	1.072123
32.51679	2737.712	70.78523	-40.07267	1.057662
32.57074	2735.443	70.73062	-40.06733	1.044658
32.62469	2733.182	70.67381	-40.06174	1.033181
32.67864	2730.937	70.62208	-40.05569	1.023242
32.73259	2728.713	70.57699	-40.04904	1.014792
32.78654	2726.514	70.53373	-40.04158	1.007741
32.84049	2724.341	70.48752	-40.03318	1.001961
32.89444	2722.19	70.43459	-40.02368	0.9972939
32.94839	2720.059	70.38102	-40.01295	0.9935597
33.00234	2717.941	70.33874	-40.00088	0.9905486
33.05629	2715.826	70.31744	-39.98734	0.9880367
33.11024	2713.705	70.32113	-39.97224	0.9857764
33.16419	2711.574	70.35086	-39.95547	0.983523
33.21814	2709.43	70.40288	-39.93694	0.9810301
33.27209	2707.268	70.47451	-39.91658	0.9780824
33.32604	2705.091	70.56092	-39.89436	0.9744868
33.37999	2702.904	70.65482	-39.87026	0.9700988
33.43394	2700.713	70.74548	-39.84431	0.9648156
33.48789	2698.526	70.82126	-39.81659	0.9585786
33.54184	2696.344	70.87551	-39.78716	0.9513804
33.59579	2694.17	70.90497	-39.75616	0.943258
33.64974	2692.004	70.90923	-39.72373	0.9342958
33.70369	2689.845	70.89016	-39.69005	0.9246181
33.75764	2687.691	70.85337	-39.65533	0.9143948
33.81159	2685.537	70.80399	-39.61976	0.9038252
33.86554	2683.378	70.74551	-39.58359	0.8931417
33.91949	2681.209	70.68087	-39.54704	0.882604
33.97343	2679.028	70.61152	-39.51031	0.8724849
34.02739	2676.84	70.53629	-39.47363	0.863032
34.08134	2674.651	70.45545	-39.43716	0.8544691
34.13528	2672.464	70.36864	-39.40106	0.846976
34.18924	2670.28	70.27388	-39.36543	0.8406833
34.24319	2668.099	70.16735	-39.33035	0.835681
34.29713	2665.929	70.04469	-39.29586	0.8320073
34.35109	2663.775	69.90099	-39.26196	0.8296928
34.40503	2661.643	69.73513	-39.22866	0.8287307
34.45898	2659.541	69.5481	-39.19597	0.8291054
34.51294	2657.468	69.33993	-39.16389	0.8307722
34.56688	2655.426	69.11258	-39.13242	0.8336622
34.62083	2653.412	68.87447	-39.10153	0.8376698
34.67479	2651.418	68.63912	-39.07118	0.8426694
34.72873	2649.435	68.42262	-39.04132	0.8485036
34.78268	2647.457	68.23641	-39.01189	0.8549751
34.83663	2645.479	68.08354	-38.98287	0.8618682
34.89058	2643.497	67.96089	-38.9542	0.8689561
34.94453	2641.504	67.86404	-38.92589	0.8760166
34.99848	2639.495	67.78777	-38.89792	0.8828411
35.05243	2637.467	67.7254	-38.8703	0.8892342
35.10638	2635.423	67.67376	-38.84304	0.8950325
35.16033	2633.365	67.63611	-38.81616	0.9001108
35.21428	2631.298	67.62047	-38.78967	0.9043858
35.26823	2629.224	67.63292	-38.76361	0.907802
35.32218	2627.144	67.67651	-38.73803	0.9103361
35.37613	2625.06	67.74705	-38.713	0.9120066
35.43008	2622.973	67.83538	-38.68862	0.9128698
35.48403	2620.884	67.93034	-38.66498	0.9130011
35.53798	2618.791	68.02443	-38.64219	0.9125106
35.59193	2616.694	68.11121	-38.62033	0.91153
35.64588	2614.592	68.18922	-38.59946	0.9102089
35.69983	2612.48	68.25787	-38.57961	0.9087033
35.75378	2610.361	68.31528	-38.56078	0.9071676
35.80773	2608.233	68.36069	-38.54293	0.9057531
35.86168	2606.094	68.39421	-38.526	0.9045933
35.91563	2603.94	68.41734	-38.50994	0.903832
35.96958	2601.777	68.43727	-38.49463	0.9036141
36.02353	2599.614	68.46274	-38.47999	0.9040977
36.07748	2597.461	68.49983	-38.46593	0.9054435
36.13143	2595.327	68.5486	-38.45233	0.9078206
36.18538	2593.213	68.60426	-38.43912	0.9114004
36.23933	2591.123	68.66033	-38.42621	0.9163546
36.29328	2589.056	68.7094	-38.41352	0.9228484
36.34723	2587.01	68.74598	-38.40098	0.9310458
36.40118	2584.978	68.76505	-38.3885	0.9411004
36.45513	2582.952	68.76131	-38.37603	0.9531573
36.50908	2580.926	68.7265	-38.36347	0.9673446
36.56303	2578.896	68.65723	-38.35076	0.9837693
36.61698	2576.859	68.55643	-38.3378	1.002499
36.67093	2574.813	68.43743	-38.32451	1.023571
36.72488	2572.753	68.31604	-38.31077	1.046987
36.77883	2570.683	68.20478	-38.29649	1.072698
36.83278	2568.604	68.10974	-38.28159	1.10062
36.88673	2566.519	68.03285	-38.26602	1.130634
36.94068	2564.431	67.97221	-38.24972	1.162589
36.99463	2562.341	67.91817	-38.23265	1.196288
37.04858	2560.248	67.85975	-38.21479	1.231489
37.10253	2558.158	67.79145	-38.19611	1.267905
37.15648	2556.076	67.71178	-38.17662	1.305232
37.21043	2554.005	67.61938	-38.15636	1.343149
37.26437	2551.944	67.51749	-38.13534	1.381313
37.31833	2549.89	67.40849	-38.11358	1.419363
37.37228	2547.837	67.29395	-38.09113	1.456921
37.42622	2545.783	67.17117	-38.06802	1.493592
37.48018	2543.725	67.03899	-38.04429	1.529003
37.53412	2541.663	66.8972	-38.02	1.562799
37.58807	2539.6	66.74956	-37.99518	1.59467
37.64202	2537.535	66.59878	-37.96989	1.624341
37.69597	2535.471	66.44314	-37.94417	1.651574
37.74992	2533.415	66.27957	-37.91802	1.676147
37.80387	2531.369	66.10661	-37.89145	1.697846
37.85782	2529.335	65.92339	-37.86442	1.716459
37.91177	2527.307	65.73261	-37.83693	1.731772
37.96572	2525.281	65.54077	-37.80893	1.743586
38.01967	2523.253	65.35592	-37.7804	1.751741
38.07362	2521.22	65.18575	-37.75132	1.756125
38.12757	2519.183	65.03335	-37.72168	1.75668
38.18152	2517.145	64.89879	-37.69146	1.753416
38.23547	2515.113	64.78264	-37.66064	1.746392
38.28942	2513.093	64.68929	-37.62919	1.735723
38.34337	2511.09	64.62425	-37.5971	1.721577
38.39732	2509.105	64.58778	-37.56431	1.704175
38.45127	2507.134	64.57027	-37.53082	1.683783
38.50522	2505.17	64.55685	-37.49658	1.660722
38.55917	2503.204	64.53029	-37.46162	1.63534
38.61312	2501.226	64.47774	-37.42594	1.608006
38.66707	2499.231	64.39207	-37.38958	1.579088
38.72102	2497.218	64.27535	-37.35259	1.548943
38.77497	2495.185	64.13534	-37.31503	1.517924
38.82892	2493.138	63.9859	-37.27696	1.486359
38.88287	2491.084	63.84288	-37.23845	1.454557
38.93682	2489.028	63.71529	-37.19959	1.422792
38.99077	2486.97	63.60453	-37.16043	1.391302
39.04472	2484.915	63.50962	-37.12105	1.360277
39.09867	2482.865	63.42551	-37.08153	1.32989
39.15262	2480.824	63.34716	-37.04195	1.30028
39.20657	2478.792	63.26937	-37.00238	1.271589
39.26052	2476.767	63.1876	-36.96289	1.243924
39.31447	2474.75	63.09942	-36.9235	1.217384
39.36842	2472.736	63.00266	-36.88419	1.19202
39.42237	2470.722	62.89472	-36.84497	1.167863
39.47632	2468.707	62.77472	-36.80584	1.144924
39.53027	2466.689	62.64668	-36.76679	1.123209
39.58422	2464.668	62.52132	-36.72786	1.102729
39.63817	2462.642	62.41054	-36.68908	1.083529
39.69212	2460.607	62.32236	-36.6505	1.065656
39.74607	2458.569	62.26207	-36.61217	1.049155
39.80002	2456.535	62.23101	-36.57417	1.034043
39.85397	2454.523	62.22457	-36.53655	1.020289
39.90792	2452.542	62.24109	-36.4994	1.007803
39.96186	2450.599	62.28046	-36.46281	0.996441
40.01582	2448.688	62.34341	-36.42686	0.9860195
40.06977	2446.802	62.42673	-36.39166	0.9763227
40.12371	2444.929	62.52081	-36.35727	0.967127
40.17767	2443.056	62.61418	-36.32376	0.9581937
40.23162	2441.172	62.69949	-36.29118	0.9492818
40.28556	2439.273	62.77228	-36.25954	0.9401699
40.33952	2437.36	62.83209	-36.22884	0.930664
40.39346	2435.434	62.88065	-36.19901	0.9206275
40.44741	2433.498	62.92159	-36.16998	0.9099901
40.50137	2431.557	62.96032	-36.14166	0.8987576
40.55531	2429.614	62.99907	-36.11396	0.8869979
40.60926	2427.671	63.03622	-36.08682	0.8748426
40.66322	2425.728	63.06862	-36.0602	0.8624647
40.71716	2423.787	63.08932	-36.03408	0.8500838
40.77111	2421.847	63.09166	-36.00846	0.8379416
40.82506	2419.914	63.07143	-35.98337	0.8262851
40.87901	2417.986	63.02608	-35.95885	0.8153556
40.93296	2416.063	62.95644	-35.93496	0.8053622
40.98691	2414.144	62.86515	-35.91176	0.7964835
41.04086	2412.23	62.75391	-35.88929	0.7888395
41.09481	2410.321	62.62699	-35.86764	0.7825208
41.14876	2408.411	62.48753	-35.84686	0.7775895
41.20271	2406.499	62.33768	-35.82699	0.774071
41.25666	2404.584	62.18177	-35.80807	0.7719703
41.31061	2402.665	62.02531	-35.7901	0.771261
41.36456	2400.743	61.86999	-35.77308	0.7718825
41.41851	2398.817	61.71654	-35.75701	0.773739
41.47246	2396.893	61.5638	-35.74191	0.7766967
41.52641	2394.977	61.4136	-35.72781	0.7805962
41.58036	2393.076	61.27079	-35.71476	0.7852629
41.63431	2391.192	61.14086	-35.70281	0.7905431
41.68826	2389.319	61.02633	-35.69201	0.7962823
41.74221	2387.449	60.92948	-35.68241	0.802339
41.79616	2385.577	60.84769	-35.67405	0.8085639
41.85011	2383.704	60.77855	-35.66695	0.8148258
41.90406	2381.83	60.71888	-35.66117	0.8209845
41.95801	2379.953	60.66799	-35.65676	0.8269155
42.01196	2378.065	60.62854	-35.65375	0.8325022
42.06591	2376.157	60.60137	-35.65218	0.8376547
42.11986	2374.226	60.58472	-35.65204	0.8423007
42.17381	2372.274	60.57642	-35.65332	0.8463768
42.22776	2370.307	60.57235	-35.65597	0.8498195
42.28171	2368.329	60.56793	-35.6599	0.8525748
42.33566	2366.341	60.56223	-35.66501	0.8545942
42.38961	2364.348	60.55744	-35.67112	0.8558438
42.44356	2362.354	60.55687	-35.67801	0.8563314
42.49751	2360.36	60.56298	-35.68541	0.8561097
42.55146	2358.369	60.57679	-35.69299	0.8552729
42.60541	2356.385	60.59618	-35.70039	0.8539631
42.65936	2354.41	60.61734	-35.70726	0.8523589
42.71331	2352.442	60.63616	-35.71324	0.8506922
42.76726	2350.479	60.64889	-35.71798	0.8492317
42.82121	2348.516	60.65237	-35.72116	0.8482781
42.87516	2346.554	60.64612	-35.72246	0.848159
42.92911	2344.597	60.62963	-35.7216	0.8491982
42.98306	2342.654	60.60009	-35.71832	0.8517052
43.03701	2340.732	60.55519	-35.7124	0.8559449
43.09095	2338.832	60.4941	-35.70366	0.8621253
43.14491	2336.955	60.41874	-35.69196	0.8703746
43.19886	2335.095	60.3332	-35.67719	0.8807437
43.2528	2333.25	60.24062	-35.65932	0.893212
43.30676	2331.415	60.14638	-35.63831	0.9076903
43.36071	2329.584	60.0582	-35.6142	0.9240277
43.41465	2327.754	59.9862	-35.58705	0.9420335
43.46861	2325.919	59.93538	-35.55696	0.9614724
43.52255	2324.074	59.90931	-35.52406	0.9820653
43.5765	2322.219	59.91046	-35.48851	1.003504
43.63046	2320.345	59.93827	-35.45049	1.025459
43.6844	2318.449	59.98638	-35.41023	1.047598
43.73835	2316.525	60.0453	-35.36796	1.069599
43.7923	2314.581	60.10399	-35.32393	1.09117
43.84625	2312.625	60.15028	-35.27841	1.11205
43.9002	2310.669	60.17427	-35.2317	1.132015
43.95415	2308.716	60.17049	-35.18409	1.150883
44.0081	2306.758	60.13947	-35.13589	1.168526
44.06205	2304.787	60.08849	-35.08741	1.184865
44.116	2302.797	60.02529	-35.03893	1.199884
44.16995	2300.785	59.95512	-34.99072	1.213602
44.2239	2298.753	59.88329	-34.94303	1.226078
44.27785	2296.705	59.81558	-34.89606	1.23739
44.3318	2294.651	59.75669	-34.85003	1.247635
44.38575	2292.598	59.70605	-34.80512	1.256898
44.4397	2290.551	59.66109	-34.76144	1.265264
44.49365	2288.515	59.61776	-34.71907	1.272792
44.5476	2286.496	59.56668	-34.67805	1.279523
44.60155	2284.503	59.49708	-34.63835	1.285463
44.6555	2282.543	59.3963	-34.59995	1.290561
44.70945	2280.622	59.25471	-34.56279	1.294738
44.7634	2278.739	59.06764	-34.5268	1.297894
44.81735	2276.892	58.83662	-34.49186	1.299934
44.8713	2275.078	58.57008	-34.45784	1.300791
44.92525	2273.292	58.28467	-34.42458	1.300425
44.9792	2271.531	57.99932	-34.39193	1.298831
45.03315	2269.792	57.73029	-34.35972	1.29602
45.0871	2268.07	57.49197	-34.32782	1.292022
45.14105	2266.358	57.29696	-34.2961	1.286859
45.195	2264.649	57.15051	-34.26445	1.280552
45.24895	2262.939	57.05111	-34.23282	1.273114
45.3029	2261.226	56.99166	-34.20116	1.264559
45.35685	2259.509	56.9617	-34.16944	1.2549
45.4108	2257.79	56.94567	-34.13771	1.244145
45.46475	2256.073	56.92566	-34.10601	1.232294
45.5187	2254.36	56.88752	-34.07445	1.219338
45.57265	2252.649	56.82488	-34.04315	1.205265
45.6266	2250.934	56.74042	-34.01226	1.190051
45.68055	2249.208	56.64311	-33.98199	1.17369
45.7345	2247.463	56.54553	-33.95255	1.156185
45.78845	2245.697	56.46099	-33.92416	1.13758
45.8424	2243.912	56.39967	-33.89707	1.117968
45.89635	2242.111	56.36552	-33.8715	1.097485
45.95029	2240.301	56.35654	-33.84768	1.076323
46.00425	2238.485	56.36903	-33.82581	1.054694
46.0582	2236.668	56.39834	-33.80611	1.032831
46.11214	2234.846	56.43613	-33.78874	1.010985
46.1661	2233.015	56.47435	-33.77383	0.9893979
46.22005	2231.168	56.50449	-33.76149	0.9682891
46.27399	2229.305	56.51741	-33.75177	0.9478491
46.32795	2227.428	56.50204	-33.74468	0.9282442
46.38189	2225.541	56.45391	-33.74023	0.9096131
46.43584	2223.649	56.3764	-33.73833	0.8920701
46.4898	2221.76	56.27876	-33.73886	0.8757169
46.54374	2219.881	56.17351	-33.74162	0.8606365
46.59769	2218.013	56.07364	-33.74642	0.8469001
46.65165	2216.159	55.99381	-33.753	0.8345644
46.70559	2214.319	55.94553	-33.7611	0.8236681
46.75954	2212.494	55.93089	-33.77045	0.8142473
46.81349	2210.683	55.94565	-33.78072	0.8063599
46.86744	2208.887	55.98169	-33.7916	0.8000812
46.92139	2207.098	56.03188	-33.80273	0.7955051
46.97534	2205.313	56.08916	-33.81377	0.7927331
47.02929	2203.53	56.14768	-33.82435	0.79186
47.08324	2201.746	56.20229	-33.83413	0.7929773
47.13719	2199.955	56.24638	-33.84277	0.7961341
47.19114	2198.149	56.27608	-33.84991	0.8013562
47.24509	2196.326	56.29392	-33.85526	0.8086225
47.29904	2194.487	56.30373	-33.85848	0.8178723
47.35299	2192.632	56.30747	-33.85934	0.8290108
47.40694	2190.767	56.30471	-33.85761	0.8418915
47.46089	2188.895	56.29499	-33.85313	0.8563269
47.51484	2187.018	56.27667	-33.84578	0.8720849
47.56879	2185.14	56.24846	-33.83551	0.8888817
47.62274	2183.265	56.20867	-33.8223	0.9063964
47.67669	2181.395	56.15784	-33.80621	0.9242632
47.73064	2179.534	56.09998	-33.78729	0.942099
47.78459	2177.681	56.03889	-33.76568	0.9594976
47.83854	2175.831	55.97777	-33.74154	0.9760603
47.89249	2173.979	55.91718	-33.71509	0.9913858
47.94644	2172.127	55.85663	-33.68655	1.005104
48.00039	2170.273	55.79483	-33.65623	1.016868
48.05434	2168.42	55.72748	-33.62439	1.026397
48.10829	2166.569	55.64951	-33.59135	1.033477
48.16224	2164.718	55.55975	-33.55741	1.037977
48.21619	2162.863	55.4593	-33.52285	1.039841
48.27014	2161.004	55.34943	-33.48797	1.039074
48.32409	2159.142	55.23175	-33.45306	1.035737
48.37804	2157.28	55.1058	-33.41843	1.029925
48.43199	2155.42	54.97154	-33.38437	1.021757
48.48594	2153.571	54.83047	-33.35112	1.011401
48.53989	2151.733	54.68578	-33.31894	0.9990624
48.59384	2149.909	54.54279	-33.28801	0.9849852
48.64779	2148.098	54.40624	-33.25846	0.9694356
48.70174	2146.299	54.27884	-33.23042	0.952695
48.75569	2144.51	54.16636	-33.20392	0.93505
48.80964	2142.73	54.07731	-33.17902	0.9167879
48.86359	2140.959	54.01874	-33.15573	0.8981965
48.91754	2139.19	53.98955	-33.13403	0.8795518
48.97149	2137.422	53.98436	-33.11388	0.8611189
49.02544	2135.655	53.99368	-33.09521	0.8431363
49.07938	2133.888	54.00544	-33.07792	0.8258052
49.13334	2132.12	54.00743	-33.06188	0.8092939
49.18729	2130.348	53.99357	-33.04693	0.7937354
49.24123	2128.574	53.96441	-33.03291	0.7792376
49.29519	2126.8	53.92254	-33.01958	0.7658752
49.34914	2125.033	53.87022	-33.00676	0.7537079
49.40308	2123.28	53.80833	-32.99422	0.7427763
49.45704	2121.545	53.73937	-32.98169	0.7331257
49.51098	2119.832	53.66549	-32.96893	0.724803
49.56493	2118.14	53.58964	-32.95567	0.7178689
49.61889	2116.465	53.51539	-32.94163	0.712389
49.67283	2114.803	53.44682	-32.92654	0.7084316
49.72678	2113.15	53.38736	-32.9101	0.7060679
49.78074	2111.5	53.3398	-32.89206	0.705348
49.83468	2109.848	53.30449	-32.87219	0.7062884
49.88863	2108.186	53.28025	-32.85031	0.7088515
49.94258	2106.509	53.26568	-32.82629	0.7129563
49.99653	2104.815	53.25969	-32.80005	0.7184898
50.05048	2103.11	53.25922	-32.77158	0.7253166
50.10443	2101.393	53.2613	-32.74089	0.7333023
50.15838	2099.665	53.26263	-32.70806	0.7423235
50.21233	2097.926	53.26245	-32.67318	0.7522773
50.26628	2096.178	53.26118	-32.63637	0.7630749
50.32023	2094.424	53.2594	-32.59783	0.7746325
50.37418	2092.668	53.25697	-32.55776	0.7868535
50.42813	2090.908	53.2578	-32.51642	0.7996482
50.48208	2089.142	53.2691	-32.47408	0.8129341
50.53603	2087.367	53.29811	-32.43101	0.8266421
50.58998	2085.578	53.34961	-32.38747	0.8407159
50.64393	2083.777	53.42252	-32.34369	0.8550992
50.69788	2081.963	53.51088	-32.29987	0.8697426
50.75183	2080.134	53.60731	-32.2562	0.8846004
50.80578	2078.294	53.70527	-32.21286	0.899623
50.85973	2076.441	53.79841	-32.17005	0.9147627
50.91368	2074.575	53.88204	-32.12792	0.929974
50.96763	2072.695	53.954	-32.08666	0.945233
51.02158	2070.799	54.00957	-32.04641	0.9605306
51.07553	2068.893	54.0425	-32.0073	0.9758834
51.12948	2066.984	54.04669	-31.96945	0.9913251
51.18343	2065.079	54.01914	-31.93293	1.006904
51.23738	2063.182	53.959	-31.89782	1.022689
51.29133	2061.298	53.86556	-31.86414	1.038758
51.34528	2059.43	53.7386	-31.83187	1.055189
51.39923	2057.578	53.58076	-31.801	1.072044
51.45318	2055.746	53.39591	-31.77145	1.089365
51.50713	2053.934	53.19044	-31.74315	1.107175
51.56108	2052.145	52.97285	-31.71598	1.125481
51.61503	2050.379	52.75289	-31.68981	1.144268
51.66898	2048.636	52.53731	-31.66446	1.163491
51.72293	2046.919	52.33128	-31.63976	1.183085
51.77688	2045.231	52.13603	-31.61551	1.202953
51.83083	2043.574	51.95172	-31.59153	1.222958
51.88478	2041.948	51.77847	-31.56766	1.242924
51.93872	2040.352	51.61644	-31.54377	1.262642
51.99268	2038.785	51.46421	-31.51976	1.281884
52.04663	2037.246	51.32053	-31.49556	1.300402
52.10057	2035.728	51.18297	-31.47116	1.31794
52.15453	2034.224	51.04924	-31.44655	1.33424
52.20848	2032.728	50.91832	-31.42178	1.349059
52.26242	2031.236	50.79221	-31.39688	1.362169
52.31638	2029.75	50.6733	-31.37193	1.373356
52.37032	2028.266	50.56813	-31.34698	1.382423
52.42427	2026.778	50.48476	-31.32211	1.389204
52.47823	2025.28	50.42896	-31.29739	1.393571
52.53217	2023.759	50.4039	-31.2729	1.395438
52.58612	2022.208	50.40834	-31.24871	1.394756
52.64007	2020.624	50.43678	-31.22487	1.391504
52.69402	2019.007	50.48146	-31.20143	1.38568
52.74797	2017.366	50.5317	-31.17847	1.377309
52.80192	2015.713	50.57442	-31.15605	1.366435
52.85587	2014.054	50.60213	-31.13427	1.353134
52.90982	2012.392	50.61347	-31.11322	1.337518
52.96377	2010.726	50.60735	-31.093	1.319737
53.01772	2009.052	50.57859	-31.07371	1.299984
53.07167	2007.37	50.52353	-31.05544	1.278495
53.12562	2005.679	50.44251	-31.03828	1.255533
53.17957	2003.98	50.34292	-31.02229	1.23139
53.23352	2002.272	50.23383	-31.00756	1.206381
53.28747	2000.557	50.12379	-30.99409	1.180844
53.34142	1998.833	50.02013	-30.9819	1.155132
53.39537	1997.099	49.92793	-30.97096	1.12959
53.44932	1995.356	49.84769	-30.96117	1.104552
53.50327	1993.606	49.77619	-30.95245	1.080314
53.55722	1991.854	49.70993	-30.94467	1.057134
53.61117	1990.104	49.64428	-30.93769	1.03521
53.66512	1988.36	49.57536	-30.93138	1.014698
53.71907	1986.625	49.49971	-30.92558	0.9957178
53.77302	1984.902	49.41483	-30.92011	0.9783584
53.82697	1983.191	49.31987	-30.91482	0.9626837
53.88092	1981.494	49.21725	-30.90956	0.9487446
53.93487	1979.807	49.11436	-30.90421	0.9365995
53.98882	1978.122	49.02152	-30.89866	0.9263047
54.04277	1976.432	48.94793	-30.89279	0.9179159
54.09672	1974.726	48.89792	-30.88652	0.9114807
54.15067	1972.999	48.87337	-30.87981	0.9070283
54.20462	1971.248	48.87214	-30.87259	0.9045629
54.25857	1969.477	48.887	-30.86482	0.9040589
54.31252	1967.692	48.90899	-30.85647	0.9054488
54.36647	1965.899	48.9309	-30.84747	0.9086233
54.42042	1964.106	48.94735	-30.83776	0.9134154
54.47437	1962.319	48.95494	-30.82727	0.9196076
54.52832	1960.541	48.95245	-30.81591	0.9269245
54.58227	1958.775	48.94149	-30.80356	0.9350427
54.63622	1957.02	48.92693	-30.79013	0.943597
54.69017	1955.275	48.91362	-30.77551	0.9521991
54.74412	1953.546	48.90055	-30.75958	0.9604664
54.79807	1951.839	48.88595	-30.74227	0.9680383
54.85202	1950.159	48.87136	-30.72349	0.9745923
54.90597	1948.511	48.86227	-30.70316	0.9798555
54.95992	1946.894	48.86287	-30.6812	0.9836136
55.01387	1945.304	48.87535	-30.65753	0.9856946
55.06781	1943.74	48.89565	-30.63206	0.9859713
55.12177	1942.195	48.91608	-30.60472	0.9843564
55.17572	1940.666	48.92912	-30.57543	0.980812
55.22966	1939.149	48.92828	-30.54418	0.9753442
55.28362	1937.639	48.90809	-30.51093	0.9680142
55.33757	1936.133	48.86379	-30.47567	0.9589294
55.39151	1934.63	48.79129	-30.4384	0.9482494
55.44547	1933.127	48.69043	-30.3991	0.9361768
55.49941	1931.619	48.56634	-30.35777	0.9229396
55.55336	1930.102	48.42629	-30.31445	0.9087797
55.60732	1928.576	48.27837	-30.26918	0.8939377
55.66126	1927.038	48.13034	-30.22204	0.87865
55.71521	1925.488	47.98827	-30.17313	0.8631333
55.76917	1923.924	47.8567	-30.12258	0.8475798
55.82311	1922.347	47.73425	-30.07056	0.8321422
55.87706	1920.76	47.61935	-30.01722	0.8169344
55.93101	1919.168	47.50936	-29.96279	0.8020382
55.98496	1917.574	47.4006	-29.90748	0.7875107
56.03891	1915.976	47.28873	-29.85154	0.7733818
56.09286	1914.365	47.17312	-29.79525	0.7596623
56.14681	1912.734	47.05613	-29.73888	0.7463453
56.20076	1911.082	46.94285	-29.68275	0.7334074
56.25471	1909.407	46.83823	-29.62716	0.7208232
56.30866	1907.712	46.7457	-29.57243	0.708558
56.36261	1906	46.67079	-29.51887	0.6965735
56.41656	1904.276	46.61634	-29.46676	0.6848401
56.47051	1902.548	46.58142	-29.41636	0.6733367
56.52446	1900.825	46.56273	-29.36789	0.6620429
56.57841	1899.113	46.55757	-29.32154	0.6509423
56.63236	1897.42	46.56395	-29.27745	0.640013
56.68631	1895.743	46.5802	-29.23576	0.6292423
56.74026	1894.08	46.6025	-29.19657	0.6186277
56.79421	1892.429	46.626	-29.15995	0.6081825
56.84816	1890.79	46.64628	-29.12593	0.5979221
56.90211	1889.163	46.66049	-29.0945	0.5878792
56.95606	1887.545	46.66856	-29.06557	0.5780982
57.01001	1885.934	46.67281	-29.03901	0.5686401
57.06396	1884.331	46.67424	-29.01464	0.5595813
57.11791	1882.734	46.67241	-28.99225	0.5510263
57.17186	1881.143	46.667	-28.9716	0.5431049
57.22581	1879.554	46.65963	-28.95242	0.5359693
57.27976	1877.965	46.65092	-28.93444	0.5297863
57.33371	1876.377	46.63999	-28.91737	0.52473
57.38766	1874.791	46.62629	-28.90095	0.5209659
57.44161	1873.21	46.6111	-28.88488	0.5186468
57.49556	1871.64	46.59614	-28.86891	0.5178949
57.54951	1870.087	46.58359	-28.85277	0.518777
57.60346	1868.557	46.57508	-28.83621	0.5213077
57.65741	1867.058	46.5723	-28.81902	0.525449
57.71136	1865.594	46.57671	-28.80096	0.5311181
57.76531	1864.164	46.58907	-28.78186	0.5382094
57.81926	1862.764	46.61132	-28.76153	0.5465899
57.87321	1861.385	46.6446	-28.73981	0.5561129
57.92715	1860.02	46.68868	-28.71655	0.5666264
57.98111	1858.662	46.74109	-28.6916	0.5779785
58.03506	1857.301	46.79851	-28.66488	0.5900354
58.089	1855.927	46.85541	-28.63631	0.6026806
58.14296	1854.536	46.90764	-28.60587	0.6158182
58.1969	1853.125	46.95084	-28.57355	0.6293793
58.25085	1851.694	46.98149	-28.53941	0.6433188
58.30481	1850.24	46.99881	-28.50353	0.6576073
58.35875	1848.767	47.00385	-28.46601	0.6722258
58.4127	1847.276	46.998	-28.42701	0.6871762
58.46666	1845.769	46.98101	-28.38665	0.7024702
58.5206	1844.246	46.95198	-28.34509	0.7181213
58.57455	1842.712	46.91033	-28.30249	0.7341331
58.6285	1841.173	46.85502	-28.25898	0.7504898
58.68245	1839.63	46.78751	-28.21471	0.7671491
58.7364	1838.085	46.71054	-28.16985	0.7840408
58.79035	1836.535	46.62502	-28.12455	0.8010529
58.8443	1834.978	46.53047	-28.07896	0.818029
58.89825	1833.411	46.42844	-28.03321	0.8347832
58.9522	1831.83	46.31876	-27.98739	0.8511043
59.00615	1830.232	46.20061	-27.9416	0.8667796
59.0601	1828.617	46.07339	-27.8959	0.8815891
59.11405	1826.989	45.93856	-27.85033	0.8953287
59.168	1825.353	45.79927	-27.80496	0.907814
59.22195	1823.714	45.65992	-27.7598	0.9188851
59.2759	1822.077	45.52251	-27.71488	0.9284085
59.32985	1820.443	45.38812	-27.67022	0.9362694
59.3838	1818.814	45.2588	-27.62584	0.9423745
59.43775	1817.194	45.13819	-27.58174	0.9466519
59.4917	1815.587	45.02913	-27.53789	0.9490513
59.54565	1813.991	44.93204	-27.49428	0.9495371
59.5996	1812.408	44.84756	-27.45085	0.9480694
59.65355	1810.835	44.77442	-27.40752	0.9446128
59.7075	1809.271	44.70903	-27.36419	0.9391384
59.76145	1807.715	44.64829	-27.32072	0.9316304
59.8154	1806.168	44.58842	-27.27693	0.9220787
59.86935	1804.635	44.52731	-27.23262	0.9104905
59.9233	1803.116	44.46536	-27.18756	0.8968965
59.97725	1801.612	44.40511	-27.14148	0.8813601
60.0312	1800.119	44.34829	-27.09414	0.863973
60.08515	1798.633	44.29589	-27.04527	0.8448626
60.1391	1797.154	44.24866	-26.99465	0.8241873
60.19305	1795.685	44.20684	-26.94207	0.802139
60.247	1794.227	44.1696	-26.88736	0.7789345
60.30095	1792.78	44.13657	-26.83036	0.7548149
60.3549	1791.35	44.10649	-26.77097	0.7300305
60.40885	1789.943	44.07833	-26.70907	0.7048387
60.4628	1788.562	44.05345	-26.64459	0.6795003
60.51675	1787.21	44.03284	-26.57747	0.6542758
60.5707	1785.889	44.01413	-26.50767	0.6294163
60.62465	1784.592	43.99292	-26.43517	0.6051561
60.6786	1783.315	43.96605	-26.35998	0.5817121
60.73255	1782.048	43.92985	-26.28215	0.5592709
60.7865	1780.782	43.88196	-26.20175	0.5379902
60.84045	1779.512	43.82572	-26.11886	0.5179897
60.8944	1778.231	43.7668	-26.03356	0.4993561
60.94835	1776.938	43.7103	-25.94594	0.4821402
61.0023	1775.629	43.65954	-25.85609	0.4663706
61.05624	1774.308	43.61743	-25.76414	0.4520493
61.1102	1772.979	43.58638	-25.67019	0.4391657
61.16415	1771.644	43.56824	-25.57441	0.4276892
61.21809	1770.305	43.56462	-25.47692	0.4175875
61.27205	1768.962	43.57501	-25.37786	0.408811
61.326	1767.613	43.59797	-25.2774	0.4012965
61.37994	1766.255	43.63335	-25.17569	0.3949566
61.4339	1764.891	43.68074	-25.07286	0.3896818
61.48784	1763.522	43.73654	-24.96905	0.3853379
61.54179	1762.151	43.79565	-24.86436	0.3817664
61.59575	1760.778	43.85399	-24.75887	0.3787959
61.64969	1759.399	43.91032	-24.65263	0.3762415
61.70364	1758.011	43.966	-24.54563	0.3739266
61.7576	1756.612	44.0196	-24.43783	0.3716859
61.81154	1755.201	44.06759	-24.32914	0.3693737
61.86549	1753.777	44.11006	-24.21941	0.3668713
61.91944	1752.342	44.14883	-24.10848	0.3641093
61.97339	1750.901	44.18633	-23.99618	0.3610526
62.02734	1749.464	44.22334	-23.8823	0.3576994
62.08129	1748.034	44.26183	-23.76664	0.3540767
62.13524	1746.613	44.30396	-23.64897	0.3502276
62.18919	1745.204	44.35118	-23.52906	0.3462176
62.24314	1743.81	44.40119	-23.40667	0.3421253
62.29709	1742.432	44.44721	-23.28153	0.3380433
62.35104	1741.07	44.47825	-23.15339	0.3340655
62.40499	1739.723	44.48523	-23.02194	0.33029
62.45894	1738.397	44.46117	-22.88687	0.3267909
62.51289	1737.091	44.40236	-22.74784	0.3236244
62.56684	1735.806	44.31097	-22.6045	0.3208143
62.62079	1734.542	44.19429	-22.45653	0.3183349
62.67474	1733.299	44.05822	-22.30357	0.3161438
62.72869	1732.075	43.90853	-22.14531	0.3141641
62.78264	1730.866	43.75162	-21.98143	0.3122816
62.83659	1729.67	43.59343	-21.81163	0.3103574
62.89054	1728.485	43.44149	-21.63561	0.3082292
62.94449	1727.31	43.30325	-21.45309	0.3056955
62.99844	1726.146	43.18332	-21.2638	0.3025461
63.05239	1724.996	43.08386	-21.06749	0.2985781
63.10634	1723.861	43.00362	-20.8639	0.2935845
63.16029	1722.742	42.9389	-20.65279	0.2873914
63.21424	1721.635	42.88384	-20.43393	0.2798589
63.26819	1720.539	42.83324	-20.20707	0.2709039
63.32214	1719.448	42.78473	-19.97195	0.2605149
63.37609	1718.361	42.73883	-19.72834	0.2487695
63.43004	1717.278	42.69887	-19.47598	0.2358737
63.48399	1716.203	42.67049	-19.21463	0.2222097
63.53794	1715.139	42.6558	-18.94403	0.2084246
63.59189	1714.083	42.65339	-18.6639	0.1955516
63.64584	1713.035	42.66249	-18.37395	0.1851143
63.69979	1711.993	42.6828	-18.07387	0.1791196
63.75374	1710.962	42.7127	-17.7633	0.1797609
63.80769	1709.947	42.75137	-17.44187	0.1887094
63.86164	1708.946	42.79653	-17.10922	0.2065012
63.91558	1707.959	42.84753	-16.76493	0.23252
63.96954	1706.988	42.90253	-16.40862	0.2655306
64.02348	1706.034	42.95924	-16.03985	0.3042088
64.07744	1705.097	43.01344	-15.65819	0.3474279
64.13139	1704.18	43.06023	-15.26313	0.3942771
64.18533	1703.287	43.09498	-14.85417	0.4440375
64.23929	1702.417	43.11392	-14.4307	0.4961499
64.29324	1701.566	43.11549	-13.9921	0.5501165
64.34718	1700.732	43.10088	-13.53773	0.6055203
64.40113	1699.913	43.07301	-13.06688	0.6620054
64.45509	1699.106	43.03441	-12.57885	0.719219
64.50903	1698.306	42.98717	-12.0729	0.7768434
64.56298	1697.51	42.93581	-11.54828	0.8346263
64.61694	1696.722	42.8867	-11.00422	0.8923143
64.67088	1695.946	42.84543	-10.4399	0.9496722
64.72483	1695.186	42.8177	-9.854499	1.006523
64.77879	1694.441	42.8066	-9.247229	1.062709
64.83273	1693.713	42.8121	-8.617256	1.118112
64.88668	1693.002	42.83282	-7.963744	1.172683
64.94064	1692.311	42.86818	-7.285895	1.226427
64.99458	1691.647	42.91747	-6.582893	1.279408
65.04853	1691.015	42.98142	-5.853884	1.331751
65.10249	1690.42	43.06337	-5.098028	1.383593
65.15643	1689.866	43.16614	-4.314467	1.435139
65.21038	1689.356	43.28896	-3.502301	1.48663
65.26433	1688.886	43.42702	-2.660624	1.538262
65.31828	1688.455	43.57339	-1.788556	1.590298
65.37223	1688.058	43.72274	-0.8851475	1.642995
65.42618	1687.694	43.87404	0.05048563	1.696571
65.48013	1687.368	44.03206	1.019232	1.751221
65.53408	1687.084	44.20228	2.021986	1.807207
65.58803	1686.849	44.38484	3.059596	1.864699
65.64198	1686.664	44.57566	4.132911	1.923841
65.69593	1686.534	44.76867	5.242802	1.984796
65.74988	1686.463	44.95706	6.390039	2.04765
65.80383	1686.456	45.13326	7.575425	2.112496
65.85778	1686.518	45.28963	8.799733	2.179359
65.91173	1686.65	45.42245	10.06364	2.248271
65.96568	1686.852	45.53236	11.36786	2.319281
66.01963	1687.12	45.6263	12.71307	2.392382
66.07358	1687.453	45.712	14.0999	2.467566
66.12753	1687.851	45.79548	15.52905	2.544903
66.18148	1688.317	45.88005	17.00118	2.624403
66.23543	1688.848	45.96622	18.51702	2.706014
66.28938	1689.446	46.0532	20.07728	2.789805
66.34333	1690.115	46.1404	21.68266	2.875726
66.39728	1690.862	46.22799	23.33395	2.963717
66.45123	1691.693	46.31495	25.03193	3.053743
66.50518	1692.611	46.39946	26.77736	3.145717
66.55913	1693.62	46.48239	28.57099	3.239547
66.61308	1694.725	46.56681	30.41366	3.335155
66.66703	1695.93	46.65845	32.30616	3.432381
66.72098	1697.243	46.76281	34.24929	3.531211
66.77493	1698.67	46.88414	36.24388	3.631564
66.82887	1700.213	47.02433	38.29081	3.733302
66.88283	1701.871	47.18457	40.3909	3.836461
66.93678	1703.642	47.36348	42.54504	3.941014
66.99072	1705.522	47.55755	44.75412	4.047015
67.04468	1707.507	47.76322	47.01912	4.154459
67.09863	1709.592	47.9792	49.3409	4.263547
67.15257	1711.779	48.20436	51.72044	4.374402
67.20653	1714.07	48.43596	54.15865	4.487177
67.26048	1716.475	48.6706	56.65651	4.602143
67.31442	1719.002	48.90267	59.21485	4.71942
67.36838	1721.661	49.12521	61.83454	4.839224
67.42233	1724.46	49.33477	64.51653	4.961737
67.47627	1727.407	49.53611	67.26149	5.087157
67.53023	1730.511	49.73791	70.07014	5.215606
67.58418	1733.778	49.94855	72.94322	5.347327
67.63812	1737.215	50.17561	75.88128	5.482369
67.69207	1740.824	50.42307	78.88484	5.62084
67.74603	1744.604	50.6935	81.95444	5.762971
67.79997	1748.553	50.986	85.09046	5.908649
67.85392	1752.67	51.29599	88.29316	6.058029
67.90788	1756.95	51.61643	91.56287	6.21119
67.96182	1761.393	51.93968	94.89964	6.368046
68.01577	1765.994	52.26243	98.30359	6.528424
68.06973	1770.753	52.58652	101.7747	6.692426
68.12367	1775.674	52.91796	105.3128	6.859775
68.17762	1780.761	53.26175	108.9177	7.030295
68.23158	1786.02	53.62107	112.5893	7.203885
68.28552	1791.455	53.99741	116.3271	7.380199
68.33947	1797.073	54.39443	120.1307	7.559003
68.39342	1802.884	54.81612	123.9997	7.739862
68.44737	1808.893	55.26669	127.9336	7.922497
68.50132	1815.109	55.74678	131.9317	8.106449
68.55527	1821.534	56.25546	135.9933	8.291285
68.60922	1828.17	56.78833	140.1179	8.476581
68.66317	1835.018	57.33901	144.3047	8.661884
68.71712	1842.083	57.89961	148.5528	8.846797
68.77107	1849.369	58.46191	152.8617	9.030766
68.82502	1856.887	59.0182	157.2305	9.213471
68.87897	1864.646	59.56066	161.6585	9.394403
68.93292	1872.657	60.08312	166.1451	9.573186
68.98687	1880.93	60.58228	170.6897	9.749266
69.04082	1889.472	61.05952	175.2913	9.922346
69.09477	1898.289	61.52063	179.9495	10.09205
69.14872	1907.385	61.97343	184.6634	10.25791
69.20267	1916.771	62.42683	189.4321	10.41969
69.25661	1926.455	62.88874	194.2548	10.57698
69.31057	1936.448	63.36436	199.1303	10.72951
69.36452	1946.752	63.85654	204.0573	10.87682
69.41846	1957.372	64.36617	209.0344	11.01868
69.47242	1968.313	64.89415	214.0597	11.15481
69.52637	1979.575	65.44063	219.1312	11.28487
69.58031	1991.161	66.01114	224.2463	11.40858
69.63427	2003.068	66.6125	229.4022	11.5257
69.68822	2015.296	67.24853	234.5956	11.63594
69.74216	2027.84	67.92044	239.8226	11.73891
69.79612	2040.697	68.62283	245.0789	11.83439
69.85007	2053.86	69.34524	250.3596	11.922
69.90401	2067.325	70.07957	255.6593	12.00136
69.95796	2081.09	70.82341	260.9719	12.07209
70.01192	2095.152	71.57899	266.2907	12.1337
70.06586	2109.508	72.35202	271.6085	12.18571
70.11981	2124.158	73.14758	276.9173	12.22755
70.17377	2139.106	73.97073	282.2087	12.25871
70.22771	2154.358	74.82595	287.4737	12.27871
70.28166	2169.918	75.71313	292.7025	12.28702
70.33562	2185.793	76.62614	297.885	12.2832
70.38956	2201.986	77.55756	303.0104	12.26683
70.44351	2218.498	78.49947	308.0676	12.23745
70.49747	2235.33	79.44159	313.0451	12.19478
70.55141	2252.479	80.37301	317.9309	12.13836
70.60536	2269.943	81.28069	322.713	12.06788
70.65932	2287.723	82.15343	327.379	11.98304
70.71326	2305.822	82.98279	331.9163	11.88371
70.76721	2324.239	83.76669	336.3127	11.76954
70.82116	2342.973	84.50924	340.5558	11.64044
70.87511	2362.017	85.2188	344.6335	11.49628
70.92906	2381.369	85.90157	348.5337	11.33703
70.98301	2401.029	86.56416	352.2449	11.16268
71.03696	2421.003	87.21503	355.7561	10.97328
71.09091	2441.296	87.86673	359.0563	10.76926
71.14486	2461.912	88.53079	362.1358	10.55063
71.19881	2482.857	89.21527	364.9849	10.31783
71.25276	2504.137	89.9196	367.595	10.07133
71.30671	2525.759	90.63899	369.958	9.811671
71.36066	2547.733	91.36657	372.0668	9.539506
71.41461	2570.065	92.09187	373.9149	9.25545
71.46856	2592.755	92.80123	375.4966	8.960851
71.52251	2615.804	93.48564	376.8071	8.655821
71.57646	2639.206	94.14307	377.8425	8.341742
71.63041	2662.947	94.77399	378.5999	8.019541
71.68436	2687.013	95.38608	379.0762	7.690282
71.73831	2711.381	95.98871	379.2704	7.354881
71.79226	2736.024	96.58452	379.1816	7.014552
71.84621	2760.909	97.17154	378.8093	6.669937
71.90016	2786.004	97.74614	378.1545	6.322446
71.95411	2811.273	98.3064	377.2184	5.973123
72.00806	2836.673	98.85265	376.0028	5.622369
72.06201	2862.155	99.38109	374.5102	5.272094
72.11596	2887.671	99.88082	372.7441	4.922615
72.16991	2913.174	100.3407	370.7078	4.574615
72.22386	2938.614	100.7477	368.4059	4.22928
72.27781	2963.938	101.0868	365.843	3.887478
72.33176	2989.091	101.3459	363.024	3.549658
72.3857	3014.017	101.5212	359.9551	3.216845
72.43966	3038.666	101.6161	356.6419	2.890435
72.49361	3062.985	101.636	353.0907	2.570328
72.54755	3086.917	101.5844	349.3087	2.257872
72.60151	3110.403	101.4648	345.3028	1.953772
72.65546	3133.385	101.2858	341.0802	1.65972
72.7094	3155.817	101.0593	336.6491	1.376976
72.76336	3177.657	100.8031	332.0174	1.108752
72.81731	3198.868	100.5352	327.1933	0.8616262
72.87125	3219.413	100.2674	322.1858	0.6491629
72.92521	3239.272	100.0023	317.0037	0.503741
72.97916	3258.43	99.73302	311.6565	0.4760858
73.0331	3276.885	99.44859	306.1536	0.57236
73.08706	3294.637	99.14022	300.5052	0.7376809
73.14101	3311.691	98.80383	294.7214	0.9297436
73.19495	3328.052	98.44056	288.813	1.129863
73.2489	3343.731	98.05286	282.7908	1.330067
73.30286	3358.745	97.6428	276.6663	1.526652
73.3568	3373.114	97.213	270.4512	1.717645
73.41075	3386.855	96.76509	264.1574	1.901744
73.46471	3399.984	96.30492	257.7973	2.078297
73.51865	3412.514	95.84473	251.3834	2.246745
73.5726	3424.459	95.39809	244.9284	2.406712
73.62656	3435.831	94.9787	238.4451	2.557935
73.6805	3446.649	94.59764	231.9464	2.700244
73.73445	3456.935	94.26271	225.4454	2.833335
73.78841	3466.718	93.97691	218.9548	2.957274
73.84235	3476.028	93.73513	212.4875	3.071859
73.8963	3484.893	93.5231	206.0561	3.176904
73.95025	3493.333	93.32872	199.6729	3.272467
74.0042	3501.365	93.13773	193.3499	3.358732
74.05815	3509.003	92.93591	187.0988	3.435356
74.1121	3516.266	92.71618	180.9306	3.502665
74.16605	3523.174	92.48302	174.856	3.560775
74.22	3529.754	92.24368	168.8851	3.609619
74.27395	3536.025	92.00379	163.0273	3.649574
74.3279	3542.008	91.76709	157.2912	3.680772
74.38185	3547.726	91.5431	151.6853	3.703456
74.4358	3553.202	91.35066	146.2163	3.7178
74.48975	3558.458	91.21066	140.8907	3.724186
74.5437	3563.515	91.13211	135.7143	3.722668
74.59765	3568.391	91.11335	130.6916	3.713775
74.6516	3573.108	91.1402	125.8263	3.697762
74.70555	3577.682	91.19305	121.1214	3.674851
74.7595	3582.13	91.25426	116.5789	3.645657
74.81345	3586.462	91.30412	112.1998	3.610188
74.8674	3590.686	91.33051	107.9844	3.56885
74.92135	3594.809	91.32649	103.932	3.521942
74.9753	3598.832	91.2872	100.0413	3.46981
75.02925	3602.755	91.21013	96.3099	3.412785
75.0832	3606.577	91.0947	92.73492	3.351166
75.13715	3610.303	90.94235	89.31294	3.285617
75.1911	3613.935	90.7596	86.03975	3.216287
75.24505	3617.478	90.55403	82.9108	3.143721
75.299	3620.936	90.33743	79.92112	3.068353
75.35295	3624.311	90.12278	77.06561	2.990892
75.4069	3627.605	89.92387	74.33869	2.911655
75.46085	3630.82	89.74848	71.73481	2.831244
75.51479	3633.956	89.59485	69.24825	2.750145
75.56875	3637.005	89.45384	66.87329	2.668855
75.6227	3639.96	89.30884	64.60435	2.587669
75.67664	3642.813	89.13966	62.43578	2.507009
75.7306	3645.561	88.9333	60.36225	2.42727
75.78455	3648.204	88.68832	58.37855	2.348423
75.83849	3650.748	88.40879	56.47961	2.27071
75.89245	3653.204	88.10415	54.66063	2.194174
75.9464	3655.587	87.78428	52.9171	2.118712
76.00034	3657.907	87.45908	51.24462	2.044343
76.0543	3660.169	87.13414	49.6391	1.970967
76.10825	3662.379	86.8163	48.09682	1.898482
76.16219	3664.545	86.5172	46.61416	1.8268
76.21615	3666.671	86.25105	45.18787	1.755874
76.2701	3668.766	86.02275	43.81497	1.685577
76.32404	3670.835	85.8325	42.49268	1.615986
76.37799	3672.893	85.67688	41.21843	1.547055
76.43195	3674.942	85.5489	39.98996	1.478766
76.48589	3676.982	85.4356	38.80517	1.41128
76.53984	3679.011	85.32806	37.66213	1.34465
76.5938	3681.025	85.22012	36.55916	1.278954
76.64774	3683.015	85.11219	35.49461	1.214351
76.70169	3684.976	85.00933	34.46706	1.150991
76.75565	3686.906	84.91026	33.47508	1.088938
76.80959	3688.802	84.81194	32.51738	1.028277
76.86354	3690.655	84.71432	31.59268	0.9690587
76.9175	3692.452	84.61948	30.69967	0.911343
76.97144	3694.177	84.53843	29.83706	0.8552216
77.02539	3695.819	84.48376	29.00352	0.8008317
77.07935	3697.371	84.46822	28.19773	0.7484137
77.13329	3698.824	84.49879	27.41829	0.6982028
77.18724	3700.175	84.57512	26.66386	0.6505877
77.24119	3701.425	84.69133	25.93302	0.6060399
77.29514	3702.58	84.83796	25.22435	0.565152
77.34909	3703.643	85.00419	24.53643	0.5286224
77.40304	3704.623	85.18418	23.86785	0.4972232
77.45699	3705.526	85.37393	23.21728	0.471765
77.51094	3706.351	85.57011	22.58336	0.4528543
77.56489	3707.096	85.76882	21.9649	0.440836
77.61884	3707.764	85.96311	21.36073	0.435598
77.67279	3708.362	86.14336	20.76982	0.4365436
77.72674	3708.894	86.30936	20.19121	0.4425992
77.78069	3709.369	86.46532	19.6241	0.4523997
77.83464	3709.798	86.61593	19.06781	0.4644113
77.88859	3710.199	86.76389	18.5218	0.477167
77.94254	3710.589	86.90932	17.98568	0.489322
77.99649	3710.982	87.05152	17.45921	0.4997249
78.05044	3711.39	87.19004	16.94231	0.5074742
78.10439	3711.823	87.32444	16.43503	0.5119039
78.15834	3712.287	87.45456	15.93757	0.5125541
78.21229	3712.788	87.57238	15.45022	0.5092133
78.26624	3713.33	87.66764	14.97341	0.501887
78.32019	3713.919	87.73669	14.50764	0.490844
78.37414	3714.558	87.77856	14.05351	0.4766973
78.42809	3715.244	87.7879	13.61171	0.4604237
78.48204	3715.973	87.76201	13.18297	0.4434313
78.53599	3716.733	87.70439	12.76808	0.4276371
78.58994	3717.511	87.62125	12.36785	0.4154564
78.64389	3718.297	87.51834	11.98312	0.4096677
78.69784	3719.092	87.39727	11.61465	0.4130334
78.75179	3719.898	87.26389	11.26316	0.4276534
78.80573	3720.723	87.12834	10.92935	0.4544173
78.85969	3721.565	86.99992	10.61377	0.4928888
78.91364	3722.422	86.88899	10.31686	0.541649
78.96758	3723.287	86.79995	10.03899	0.5988197
79.02154	3724.155	86.7262	9.780415	0.6624791
79.07549	3725.015	86.65688	9.541245	0.7308499
79.12943	3725.848	86.58058	9.321459	0.8024119
79.18339	3726.638	86.48534	9.120891	0.8758761
79.23734	3727.371	86.36904	8.939201	0.9501479
79.29128	3728.043	86.23618	8.775918	1.024294
79.34524	3728.653	86.09943	8.630433	1.097517
79.39919	3729.203	85.97348	8.502062	1.169169
79.45313	3729.69	85.8699	8.390013	1.238703
79.50708	3730.113	85.79525	8.293445	1.305714
79.56104	3730.477	85.74862	8.211446	1.369904
79.61498	3730.784	85.72005	8.143063	1.43109
79.66893	3731.041	85.69751	8.087287	1.489185
79.72289	3731.254	85.6727	8.043093	1.544195
79.77683	3731.429	85.6432	8.009429	1.596206
79.83078	3731.569	85.61165	7.985248	1.645349
79.88474	3731.676	85.57777	7.969549	1.691777
79.93868	3731.754	85.53202	7.961362	1.735683
79.99263	3731.81	85.461	7.9598	1.777236
80.04659	3731.847	85.35629	7.964067	1.816501
80.10053	3731.871	85.21825	7.973408	1.853535
80.15448	3731.879	85.05306	7.987175	1.888345
80.20844	3731.876	84.86752	8.004784	1.920846
80.26238	3731.863	84.66982	8.025743	1.95101
80.31633	3731.845	84.46886	8.049664	1.978768
80.37028	3731.833	84.27455	8.076312	2.004047
80.42423	3731.839	84.09282	8.105497	2.026774
80.47818	3731.871	83.92671	8.137156	2.046872
80.53213	3731.936	83.77902	8.171309	2.064251
80.58608	3732.038	83.65177	8.20801	2.078892
80.64003	3732.183	83.53824	8.24733	2.090788
80.69398	3732.37	83.43051	8.289354	2.099941
80.74793	3732.598	83.31561	8.334136	2.106435
80.80188	3732.865	83.18066	8.381701	2.110329
80.85583	3733.173	83.0181	8.432071	2.111712
80.90978	3733.525	82.83094	8.485209	2.110709
80.96373	3733.923	82.62704	8.541062	2.107419
81.01768	3734.368	82.4213	8.599528	2.101938
81.07162	3734.853	82.23003	8.660456	2.094369
81.12558	3735.367	82.06419	8.723615	2.084817
81.17953	3735.905	81.92583	8.788685	2.073377
81.23347	3736.466	81.81365	8.85523	2.060142
81.28743	3737.056	81.7263	8.922725	2.045215
81.34138	3737.682	81.66078	8.990545	2.028689
81.39532	3738.344	81.612	9.058026	2.010651
81.44928	3739.042	81.58027	9.124428	1.991149
81.50323	3739.774	81.5648	9.188966	1.97021
81.55717	3740.541	81.56088	9.250803	1.947843
81.61113	3741.341	81.55714	9.309084	1.924058
81.66508	3742.17	81.53584	9.362924	1.898881
81.71902	3743.026	81.48017	9.411403	1.872333
81.77298	3743.899	81.38239	9.453579	1.84451
81.82693	3744.778	81.25027	9.488475	1.815526
81.88087	3745.656	81.09612	9.515105	1.785537
81.93482	3746.528	80.93748	9.532479	1.754767
81.98878	3747.392	80.78944	9.539631	1.723422
82.04272	3748.247	80.66779	9.535595	1.691751
82.09667	3749.096	80.57851	9.519356	1.659987
82.15063	3749.944	80.51917	9.489997	1.628395
82.20457	3750.791	80.47779	9.446577	1.59722
82.25852	3751.634	80.43797	9.38822	1.56677
82.31248	3752.468	80.38488	9.314112	1.537272
82.36642	3753.282	80.31211	9.223558	1.509035
82.42037	3754.066	80.21491	9.115895	1.482329
82.47433	3754.811	80.08969	8.990579	1.457299
82.52827	3755.511	79.93503	8.847157	1.434128
82.58222	3756.159	79.75571	8.685228	1.412978
82.63618	3756.75	79.56317	8.504507	1.393963
82.69012	3757.278	79.37049	8.304749	1.377188
82.74407	3757.744	79.18848	8.085774	1.36284
82.79802	3758.152	79.02479	7.847486	1.351028
82.85197	3758.519	78.88267	7.589832	1.34191
82.90592	3758.859	78.76505	7.312796	1.335673
82.95987	3759.196	78.67331	7.016448	1.332427
83.01382	3759.543	78.60916	6.700878	1.332286
83.06777	3759.911	78.56975	6.366182	1.335295
83.12172	3760.297	78.54968	6.0125	1.341509
83.17567	3760.695	78.54013	5.639936	1.350918
83.22962	3761.085	78.5352	5.248592	1.363506
83.28357	3761.455	78.52927	4.838558	1.379264
83.33752	3761.791	78.51961	4.409916	1.398183
83.39147	3762.091	78.50575	3.962744	1.420261
83.44542	3762.353	78.49427	3.497108	1.44546
83.49937	3762.584	78.4947	3.01311	1.473762
83.55332	3762.788	78.52008	2.510854	1.505105
83.60727	3762.977	78.5779	1.990481	1.539428
83.66122	3763.161	78.66708	1.452129	1.576627
83.71517	3763.35	78.77772	0.8959662	1.616628
83.76912	3763.539	78.89661	0.3221386	1.659337
83.82307	3763.725	79.00225	-0.2692045	1.70469
83.87702	3763.898	79.0741	-0.8779195	1.752641
83.93097	3764.053	79.09941	-1.503848	1.803162
83.98492	3764.177	79.07777	-2.146832	1.856253
84.03887	3764.26	79.01504	-2.806736	1.911898
84.09282	3764.289	78.91727	-3.48341	1.970106
84.14677	3764.26	78.78998	-4.176737	2.030878
84.20072	3764.175	78.64246	-4.886552	2.094159
84.25467	3764.035	78.48236	-5.612679	2.159897
84.30862	3763.844	78.31949	-6.354945	2.228058
84.36256	3763.605	78.16182	-7.113095	2.29858
84.41652	3763.323	78.01409	-7.886906	2.371382
84.47047	3763.01	77.87421	-8.676126	2.446423
84.52441	3762.674	77.73914	-9.480477	2.523547
84.57837	3762.325	77.60972	-10.29965	2.602617
84.63232	3761.963	77.48728	-11.13335	2.683456
84.68626	3761.588	77.37189	-11.98112	2.765871
84.74022	3761.197	77.26202	-12.84245	2.849646
84.79417	3760.785	77.15223	-13.71679	2.934568
84.84811	3760.345	77.03976	-14.60341	3.020433
84.90207	3759.864	76.9203	-15.50152	3.107026
84.95602	3759.333	76.79066	-16.41029	3.194164
85.00996	3758.745	76.65273	-17.32873	3.281574
85.06391	3758.098	76.51472	-18.25582	3.369053
85.11787	3757.396	76.37981	-19.19048	3.456347
85.17181	3756.638	76.24693	-20.13159	3.543206
85.22576	3755.821	76.11298	-21.07798	3.629378
85.27972	3754.94	75.972	-22.02848	3.714606
85.33366	3753.987	75.81327	-22.98193	3.798646
85.38761	3752.954	75.6194	-23.9372	3.881226
85.44157	3751.838	75.37836	-24.89311	3.962122
85.49551	3750.632	75.08841	-25.84852	4.041095
85.54946	3749.332	74.75751	-26.8022	4.117922
85.60342	3747.939	74.39606	-27.7529	4.192394
85.65736	3746.451	74.0174	-28.69934	4.264314
85.71131	3744.871	73.63633	-29.64017	4.333506
85.76527	3743.195	73.26022	-30.57405	4.399836
85.81921	3741.425	72.88692	-31.49966	4.463197
85.87316	3739.563	72.51262	-32.41569	4.523533
85.92711	3737.619	72.13576	-33.32089	4.580811
85.98106	3735.597	71.75955	-34.21407	4.635054
86.03501	3733.502	71.38554	-35.09412	4.686274
86.08896	3731.336	71.01705	-35.96002	4.73449
86.14291	3729.106	70.65593	-36.81086	4.779744
86.19686	3726.815	70.3039	-37.64579	4.821955
86.25081	3724.463	69.96221	-38.4641	4.861115
86.30476	3722.052	69.63246	-39.2651	4.897164
86.35871	3719.586	69.31641	-40.04818	4.930031
86.41266	3717.062	69.01793	-40.81289	4.959682
86.46661	3714.485	68.73823	-41.55884	4.986126
86.52056	3711.85	68.47907	-42.28575	5.009344
86.57451	3709.16	68.23917	-42.99351	5.029395
86.62846	3706.406	68.01508	-43.68213	5.046275
86.68241	3703.589	67.80066	-44.3517	5.059883
86.73636	3700.708	67.59284	-45.00241	5.070255
86.79031	3697.773	67.39089	-45.63459	5.0773
86.84426	3694.793	67.19548	-46.24851	5.080935
86.89821	3691.784	66.99841	-46.8446	5.081171
86.95216	3688.755	66.78828	-47.4233	5.077991
87.00611	3685.716	66.56123	-47.98502	5.071351
87.06006	3682.663	66.31898	-48.53026	5.061332
87.11401	3679.594	66.0619	-49.05949	5.048082
87.16796	3676.501	65.79681	-49.5732	5.031684
87.22191	3673.391	65.52988	-50.07195	5.012413
87.27586	3670.264	65.27094	-50.55633	4.990518
87.32981	3667.128	65.0237	-51.02695	4.966361
87.38376	3663.986	64.78939	-51.48454	4.940293
87.43771	3660.839	64.56747	-51.92982	4.912744
87.49165	3657.692	64.35756	-52.36354	4.884152
87.54561	3654.557	64.15577	-52.78642	4.854958
87.59956	3651.446	63.95469	-53.19921	4.825567
87.6535	3648.367	63.7507	-53.60258	4.796346
87.70746	3645.326	63.53951	-53.9972	4.767635
87.76141	3642.323	63.3151	-54.3837	4.739713
87.81535	3639.359	63.07176	-54.76265	4.712845
87.86931	3636.426	62.80358	-55.13463	4.687278
87.92326	3633.512	62.50754	-55.50019	4.663251
87.9772	3630.605	62.18567	-55.85986	4.641024
88.03116	3627.704	61.84364	-56.21412	4.620852
88.08511	3624.82	61.48823	-56.56345	4.602994
88.13905	3621.963	61.12895	-56.90832	4.587678
88.19301	3619.138	60.7766	-57.24912	4.575078
88.24696	3616.349	60.44085	-57.58626	4.565344
88.3009	3613.594	60.12513	-57.92007	4.558545
88.35485	3610.864	59.83456	-58.25086	4.554719
88.40881	3608.147	59.5696	-58.57894	4.553898
88.46275	3605.435	59.32764	-58.90457	4.556023
88.5167	3602.715	59.1035	-59.228	4.561048
88.57066	3599.979	58.89393	-59.5495	4.568881
88.6246	3597.209	58.69728	-59.86929	4.579335
88.67855	3594.39	58.51184	-60.1876	4.592184
88.73251	3591.508	58.33466	-60.50464	4.607225
88.78645	3588.553	58.16476	-60.82059	4.624181
88.8404	3585.525	58.00399	-61.13557	4.642797
88.89436	3582.434	57.8503	-61.44973	4.662832
88.9483	3579.296	57.70293	-61.76311	4.68399
89.00225	3576.125	57.56079	-62.07574	4.705976
89.0562	3572.926	57.42299	-62.38758	4.7285
89.11015	3569.697	57.28899	-62.69852	4.751249
89.1641	3566.427	57.16684	-63.00838	4.773935
89.21805	3563.102	57.06527	-63.31696	4.796304
89.272	3559.712	56.98389	-63.62396	4.818124
89.32595	3556.254	56.9128	-63.92908	4.839238
89.3799	3552.723	56.84019	-64.23196	4.859542
89.43385	3549.116	56.75535	-64.53213	4.879003
89.4878	3545.43	56.65343	-64.82909	4.897617
89.54175	3541.67	56.52915	-65.12229	4.915454
89.5957	3537.843	56.38159	-65.4111	4.932611
89.64965	3533.963	56.21118	-65.69491	4.949246
89.7036	3530.042	56.01509	-65.97308	4.965524
89.75755	3526.101	55.79269	-66.24503	4.981639
89.8115	3522.152	55.54532	-66.51016	4.997795
89.86545	3518.209	55.27217	-66.76795	5.014205
89.9194	3514.271	54.97045	-67.01786	5.031085
89.97335	3510.339	54.63929	-67.25941	5.048622
90.0273	3506.406	54.28154	-67.49216	5.067042
90.08125	3502.474	53.90329	-67.71576	5.08646
90.1352	3498.528	53.51797	-67.92988	5.107008
90.18915	3494.565	53.13772	-68.13425	5.128764
90.2431	3490.58	52.76853	-68.3287	5.151769
90.29705	3486.577	52.41403	-68.51305	5.175977
90.351	3482.55	52.07718	-68.68726	5.201358
90.40495	3478.507	51.7543	-68.85137	5.227841
90.4589	3474.451	51.43395	-69.00547	5.255237
90.51285	3470.396	51.10101	-69.1498	5.283399
90.5668	3466.353	50.74594	-69.28466	5.312107
90.62074	3462.331	50.36334	-69.41047	5.341059
90.6747	3458.33	49.95311	-69.52776	5.369982
90.72865	3454.353	49.51875	-69.63706	5.398535
90.78259	3450.396	49.06867	-69.73899	5.426356
90.83655	3446.459	48.60996	-69.83419	5.453074
90.8905	3442.538	48.15236	-69.92333	5.478276
90.94444	3438.63	47.70645	-70.00706	5.501527
90.9984	3434.73	47.28392	-70.08609	5.522388
91.05235	3430.842	46.88898	-70.16106	5.540409
91.10629	3426.969	46.52702	-70.23264	5.55514
91.16025	3423.119	46.20513	-70.30141	5.566153
91.2142	3419.287	45.92692	-70.36796	5.573037
91.26814	3415.479	45.68629	-70.43283	5.575405
91.3221	3411.697	45.47075	-70.49652	5.572915
91.37605	3407.942	45.26431	-70.55954	5.565227
91.42999	3404.214	45.0562	-70.62237	5.552091
91.48394	3400.51	44.83795	-70.68543	5.533302
91.5379	3396.83	44.60567	-70.74905	5.508733
91.59184	3393.178	44.35691	-70.81351	5.478343
91.64579	3389.563	44.09126	-70.87898	5.442193
91.69975	3385.99	43.80919	-70.94563	5.400461
91.75369	3382.457	43.51796	-71.0136	5.353379
91.80764	3378.958	43.22904	-71.08299	5.301315
91.8616	3375.48	42.9507	-71.15393	5.244663
91.91554	3372.014	42.69063	-71.22653	5.183893
91.96949	3368.552	42.4509	-71.30093	5.119504
92.02345	3365.094	42.22466	-71.37725	5.052056
92.07739	3361.635	42.00643	-71.45563	4.982092
92.13134	3358.17	41.79257	-71.53625	4.910122
92.1853	3354.692	41.5757	-71.61926	4.836667
92.23924	3351.198	41.34679	-71.70479	4.762179
92.29319	3347.683	41.09949	-71.793	4.687066
92.34714	3344.14	40.8302	-71.88401	4.611655
92.40109	3340.565	40.53481	-71.97803	4.536117
92.45504	3336.956	40.21301	-72.12425	4.452141
92.50899	3333.307	39.86879	-72.26267	4.370434
92.56294	3329.613	39.51259	-72.395	4.290858
92.61689	3325.863	39.15539	-72.52311	4.213208
92.67084	3322.049	38.81116	-72.64866	4.137199
92.72479	3318.166	38.4926	-72.77293	4.062536
92.77874	3314.212	38.20728	-72.89685	3.988937
92.83269	3310.195	37.95648	-73.02111	3.916167
92.88664	3306.116	37.73572	-73.14617	3.844019
92.94059	3301.98	37.53577	-73.27237	3.772317
92.99454	3297.789	37.34706	-73.3999	3.700907
93.04848	3293.55	37.15881	-73.52891	3.629673
93.10244	3289.269	36.96828	-73.65946	3.558499
93.15639	3284.958	36.77697	-73.79159	3.487305
93.21033	3280.624	36.59006	-73.92529	3.416022
93.26429	3276.279	36.41195	-74.06055	3.344597
93.31824	3271.931	36.24769	-74.19728	3.27299
93.37218	3267.589	36.10216	-74.33546	3.20116
93.42614	3263.259	35.98369	-74.47498	3.129094
93.48009	3258.947	35.89748	-74.61575	3.05678
93.53403	3254.651	35.84335	-74.75769	2.984211
93.58799	3250.368	35.81644	-74.90069	2.911394
93.64194	3246.103	35.80656	-75.04463	2.838344
93.69588	3241.86	35.80598	-75.18941	2.765089
93.74984	3237.636	35.80982	-75.3349	2.691656
93.80379	3233.441	35.81108	-75.481	2.618085
93.85773	3229.277	35.80264	-75.62757	2.544428
93.91168	3225.144	35.77941	-75.77451	2.470754
93.96564	3221.028	35.73366	-75.92171	2.397125
94.01958	3216.924	35.6574	-76.06905	2.323632
94.07353	3212.854	35.49651	-76.21641	2.250366
94.12749	3208.839	35.27633	-76.3637	2.177433
94.18143	3204.87	35.02799	-76.51081	2.104952
94.23538	3200.927	34.76835	-76.65766	2.033055
94.28934	3197	34.50365	-76.80416	1.961894
94.34328	3193.083	34.23639	-76.95023	1.891634
94.39723	3189.171	33.96719	-77.09578	1.822467
94.45119	3185.261	33.69588	-77.24076	1.75461
94.50513	3181.352	33.42223	-77.3851	1.688303
94.55908	3177.443	33.14571	-77.52874	1.623817
94.61303	3173.533	32.86617	-77.67164	1.561455
94.66698	3169.623	32.58335	-77.81375	1.501558
94.72093	3165.712	32.29623	-77.95503	1.444512
94.77488	3161.802	32.00422	-78.09546	1.390736
94.82883	3157.891	31.70587	-78.23502	1.340689
94.88278	3153.982	31.40025	-78.37368	1.294865
94.93673	3150.075	31.08614	-78.51144	1.25379
94.99068	3146.172	30.76344	-78.64829	1.217988
