T[Â°C]	350nm [counts / mm]	S.D.	First derivative	S.D. of first derivative
20.00043	2864.398	74.31808	-41.40982	1.931225
20.05438	2862.271	74.1054	-41.38167	1.888789
20.10833	2860.142	73.89568	-41.35343	1.846673
20.16228	2858.012	73.68871	-41.3251	1.804898
20.21623	2855.88	73.48475	-41.29668	1.763499
20.27018	2853.747	73.28376	-41.26818	1.722504
20.32413	2851.614	73.08612	-41.23959	1.681949
20.37808	2849.478	72.89169	-41.21091	1.64187
20.43203	2847.342	72.70055	-41.18214	1.602307
20.48598	2845.203	72.51224	-41.1533	1.563299
20.53993	2843.063	72.3265	-41.12437	1.524891
20.59388	2840.92	72.14319	-41.09536	1.487131
20.64783	2838.776	71.96226	-41.06628	1.450066
20.70178	2836.627	71.78345	-41.03712	1.413751
20.75573	2834.475	71.60699	-41.0079	1.37824
20.80968	2832.317	71.43207	-40.97861	1.343583
20.86363	2830.151	71.25843	-40.94926	1.309844
20.91758	2827.974	71.08813	-40.91985	1.277081
20.97153	2825.778	70.92651	-40.89038	1.245351
21.02548	2823.514	70.82771	-40.86085	1.214719
21.07943	2821.243	70.75043	-40.83128	1.185242
21.13338	2818.973	70.69953	-40.80165	1.156981
21.18733	2816.708	70.67915	-40.77198	1.129992
21.24128	2814.451	70.68825	-40.74227	1.104334
21.29523	2812.205	70.72001	-40.7125	1.080059
21.34918	2809.969	70.76627	-40.68269	1.05721
21.40313	2807.744	70.81949	-40.65282	1.035836
21.45708	2805.531	70.8735	-40.6229	1.015959
21.51103	2803.325	70.92774	-40.59292	0.9976104
21.56498	2801.124	70.98194	-40.56289	0.9808016
21.61893	2798.925	71.03203	-40.53278	0.965532
21.67288	2796.729	71.07436	-40.50261	0.951798
21.72683	2794.536	71.1096	-40.47237	0.9395809
21.78078	2792.348	71.14276	-40.44206	0.9288491
21.83473	2790.168	71.17699	-40.41166	0.9195709
21.88868	2788.003	71.21492	-40.38118	0.9117001
21.94263	2785.856	71.25723	-40.3506	0.9051854
21.99658	2783.729	71.30426	-40.31993	0.8999754
22.05053	2781.624	71.35345	-40.28915	0.8960131
22.10448	2779.538	71.4006	-40.25826	0.8932477
22.15843	2777.465	71.44289	-40.22724	0.8916382
22.21238	2775.391	71.4785	-40.19608	0.8911768
22.26632	2773.309	71.50598	-40.16474	0.8919097
22.32027	2771.212	71.52327	-40.13319	0.8939646
22.37423	2769.098	71.52891	-40.10137	0.8976129
22.42817	2766.961	71.52509	-40.0692	0.9033299
22.48212	2764.801	71.51385	-40.03659	0.9118604
22.53607	2762.614	71.49756	-40.00342	0.9242079
22.59002	2760.399	71.47565	-39.96965	0.9414614
22.64397	2758.154	71.44799	-39.94285	0.9671633
22.69792	2755.882	71.41288	-39.91797	0.9929154
22.75187	2753.591	71.36832	-39.89505	1.018469
22.80582	2751.289	71.31159	-39.87407	1.043611
22.85977	2748.987	71.24154	-39.85497	1.068162
22.91372	2746.696	71.16071	-39.83768	1.091991
22.96767	2744.425	71.07531	-39.8221	1.115007
23.02162	2742.183	70.99078	-39.80811	1.137182
23.07557	2739.971	70.90573	-39.79556	1.158523
23.12952	2737.791	70.81934	-39.78431	1.179067
23.18347	2735.642	70.73026	-39.77421	1.198851
23.23742	2733.527	70.63647	-39.76511	1.217921
23.29137	2731.442	70.53792	-39.75685	1.236298
23.34532	2729.384	70.43598	-39.74929	1.253986
23.39927	2727.345	70.32706	-39.74229	1.270974
23.45322	2725.32	70.20469	-39.73569	1.287214
23.50717	2723.302	70.06195	-39.72935	1.302631
23.56112	2721.282	69.8915	-39.72315	1.317119
23.61507	2719.261	69.69083	-39.71696	1.330547
23.66902	2717.237	69.46289	-39.71067	1.34277
23.72297	2715.214	69.21637	-39.70417	1.353645
23.77692	2713.194	68.96655	-39.69739	1.363025
23.83087	2711.175	68.73282	-39.69027	1.370789
23.88482	2709.156	68.53085	-39.68274	1.376835
23.93877	2707.131	68.36564	-39.67477	1.381099
23.99272	2705.095	68.23693	-39.66632	1.383549
24.04667	2703.044	68.14231	-39.65741	1.384183
24.10062	2700.979	68.07811	-39.64805	1.383035
24.15457	2698.894	68.03632	-39.63832	1.38016
24.20852	2696.785	68.00667	-39.62833	1.375653
24.26247	2694.647	67.97626	-39.61817	1.369629
24.31642	2692.476	67.9324	-39.60796	1.362217
24.37037	2690.277	67.86692	-39.59784	1.353549
24.42432	2688.056	67.77875	-39.58793	1.343748
24.47827	2685.82	67.67449	-39.57837	1.332929
24.53222	2683.575	67.56407	-39.56933	1.321203
24.58617	2681.328	67.45825	-39.56097	1.308693
24.64012	2679.083	67.36588	-39.55346	1.295516
24.69407	2676.844	67.29496	-39.54694	1.281806
24.74802	2674.611	67.24886	-39.54157	1.267717
24.80197	2672.387	67.22816	-39.53744	1.253426
24.85592	2670.175	67.22998	-39.53465	1.23911
24.90987	2667.98	67.24867	-39.53325	1.224955
24.96382	2665.805	67.27828	-39.53326	1.21115
25.01777	2663.646	67.31109	-39.53465	1.197886
25.07172	2661.497	67.33798	-39.53735	1.185333
25.12567	2659.352	67.34963	-39.54122	1.173666
25.17962	2657.207	67.33675	-39.5461	1.163032
25.23357	2655.062	67.29504	-39.5518	1.153564
25.28752	2652.918	67.22717	-39.55811	1.145386
25.34146	2650.778	67.14171	-39.5648	1.138605
25.39541	2648.646	67.05042	-39.57163	1.133326
25.44937	2646.521	66.96586	-39.57837	1.129656
25.50331	2644.399	66.89574	-39.58479	1.12769
25.55726	2642.279	66.84254	-39.59066	1.127496
25.61121	2640.16	66.80614	-39.59579	1.129109
25.66516	2638.04	66.78625	-39.6	1.132525
25.71911	2635.917	66.78165	-39.60312	1.137702
25.77306	2633.792	66.79094	-39.60502	1.144556
25.82701	2631.664	66.813	-39.60558	1.152975
25.88096	2629.533	66.84332	-39.60467	1.16282
25.93491	2627.402	66.8742	-39.60218	1.173924
25.98886	2625.276	66.89743	-39.59803	1.186105
26.04281	2623.157	66.90723	-39.59215	1.199167
26.09676	2621.049	66.90304	-39.58453	1.212932
26.15071	2618.95	66.88852	-39.57515	1.227233
26.20466	2616.855	66.8661	-39.56407	1.241929
26.25861	2614.758	66.8373	-39.55133	1.256889
26.31256	2612.65	66.80386	-39.53703	1.271993
26.36651	2610.533	66.76351	-39.52124	1.287107
26.42046	2608.409	66.7121	-39.50409	1.302081
26.47441	2606.285	66.64535	-39.48568	1.316748
26.52836	2604.166	66.56287	-39.46615	1.330937
26.58231	2602.056	66.46722	-39.44564	1.34449
26.63626	2599.953	66.35998	-39.42428	1.35726
26.69021	2597.85	66.2421	-39.40221	1.369126
26.74416	2595.741	66.11449	-39.37955	1.379987
26.79811	2593.624	65.98048	-39.35643	1.389766
26.85206	2591.5	65.84435	-39.33296	1.398414
26.90601	2589.375	65.71112	-39.30927	1.405895
26.95996	2587.253	65.58705	-39.28547	1.412188
27.01391	2585.136	65.47338	-39.26162	1.417267
27.06786	2583.025	65.36704	-39.23778	1.421092
27.12181	2580.914	65.26337	-39.21393	1.4236
27.17576	2578.798	65.15653	-39.19004	1.424716
27.22971	2576.673	65.04328	-39.16604	1.424358
27.28366	2574.536	64.91924	-39.14189	1.422448
27.33761	2572.39	64.78148	-39.11751	1.418901
27.39156	2570.234	64.63008	-39.09284	1.413634
27.44551	2568.069	64.46792	-39.06783	1.406562
27.49946	2565.894	64.2989	-39.04239	1.397597
27.55341	2563.713	64.12719	-39.01645	1.386645
27.60736	2561.533	63.95874	-38.98993	1.373609
27.66131	2559.358	63.79735	-38.96278	1.358396
27.71526	2557.191	63.64531	-38.93494	1.340917
27.76921	2555.033	63.50544	-38.90635	1.321118
27.82316	2552.884	63.38372	-38.87697	1.298975
27.87711	2550.743	63.28437	-38.84677	1.274511
27.93106	2548.609	63.20533	-38.8157	1.247788
27.98501	2546.482	63.14125	-38.78373	1.218921
28.03896	2544.365	63.08607	-38.75085	1.18807
28.09291	2542.259	63.03436	-38.7171	1.155442
28.14686	2540.164	62.98203	-38.68253	1.121304
28.20081	2538.079	62.92522	-38.64723	1.085968
28.25476	2536.004	62.86308	-38.61129	1.049803
28.3087	2533.94	62.79863	-38.57481	1.013211
28.36266	2531.885	62.73499	-38.53791	0.9766128
28.4166	2529.838	62.67561	-38.50071	0.9404388
28.47055	2527.8	62.6212	-38.46332	0.9050885
28.5245	2525.769	62.57153	-38.42583	0.8709427
28.57845	2523.741	62.52744	-38.38834	0.8383631
28.6324	2521.71	62.48905	-38.35094	0.8076577
28.68635	2519.673	62.45358	-38.31369	0.7790858
28.7403	2517.628	62.41783	-38.27664	0.7528458
28.79425	2515.576	62.3802	-38.23986	0.7290666
28.8482	2513.516	62.3429	-38.2034	0.7078247
28.90215	2511.449	62.31189	-38.16731	0.6891557
28.9561	2509.376	62.29313	-38.1317	0.6730554
29.01005	2507.304	62.29018	-38.09665	0.65949
29.064	2505.234	62.30312	-38.06223	0.6483925
29.11795	2503.172	62.32722	-38.02851	0.639697
29.1719	2501.119	62.35929	-37.99555	0.6333418
29.22585	2499.078	62.39643	-37.96341	0.6292778
29.2798	2497.051	62.43411	-37.93215	0.6274797
29.33375	2495.032	62.46758	-37.90186	0.6279374
29.3877	2493.02	62.49458	-37.87263	0.6306593
29.44165	2491.009	62.51534	-37.84455	0.6356444
29.4956	2488.992	62.53401	-37.81768	0.6429062
29.54955	2486.967	62.55801	-37.79206	0.6524358
29.6035	2484.939	62.59558	-37.76768	0.664196
29.65745	2482.915	62.65321	-37.74454	0.6781252
29.7114	2480.896	62.73084	-37.7226	0.6941272
29.76535	2478.885	62.82346	-37.70182	0.7120745
29.8193	2476.877	62.92363	-37.68211	0.7318087
29.87325	2474.871	63.02307	-37.66338	0.7531413
29.9272	2472.868	63.11528	-37.64553	0.7758625
29.98115	2470.873	63.19604	-37.62844	0.7997583
30.0351	2468.891	63.26252	-37.612	0.8246052
30.08905	2466.921	63.31261	-37.59613	0.8501756
30.143	2464.958	63.3456	-37.58076	0.8762391
30.19695	2462.996	63.36143	-37.56588	0.902573
30.2509	2461.027	63.35987	-37.55146	0.9289998
30.30485	2459.045	63.33954	-37.53751	0.9553837
30.3588	2457.048	63.30079	-37.52405	0.981643
30.41275	2455.037	63.24438	-37.5111	1.007724
30.4667	2453.018	63.17022	-37.49872	1.033597
30.52065	2450.995	63.07672	-37.48697	1.059234
30.5746	2448.97	62.96305	-37.47591	1.084617
30.62855	2446.938	62.8297	-37.46563	1.109712
30.6825	2444.893	62.67746	-37.45618	1.134461
30.73645	2442.837	62.50842	-37.44764	1.158768
30.7904	2440.772	62.3231	-37.44007	1.182503
30.84435	2438.702	62.12066	-37.43353	1.205505
30.8983	2436.631	61.90003	-37.42807	1.227582
30.95225	2434.564	61.66569	-37.42374	1.248502
31.0062	2432.501	61.42888	-37.42057	1.268008
31.06015	2430.447	61.19895	-37.41857	1.28583
31.1141	2428.401	60.9838	-37.41771	1.3017
31.16805	2426.36	60.79296	-37.41796	1.315362
31.222	2424.322	60.6325	-37.41926	1.326587
31.27595	2422.286	60.50346	-37.42156	1.335178
31.3299	2420.254	60.40503	-37.42482	1.340979
31.38384	2418.229	60.3288	-37.42898	1.343879
31.4378	2416.208	60.26131	-37.43398	1.343814
31.49174	2414.184	60.18707	-37.43976	1.340748
31.54569	2412.153	60.0965	-37.44623	1.334691
31.59964	2410.114	59.99059	-37.4533	1.325674
31.65359	2408.073	59.87535	-37.46087	1.313757
31.70754	2406.039	59.75661	-37.46882	1.299026
31.76149	2404.019	59.63881	-37.47701	1.281603
31.81544	2402.014	59.52874	-37.48525	1.261633
31.86939	2400.018	59.43337	-37.49337	1.239304
31.92334	2398.028	59.35911	-37.50111	1.214862
31.97729	2396.042	59.3075	-37.50823	1.188603
32.03124	2394.059	59.27429	-37.51445	1.160884
32.08519	2392.08	59.25036	-37.51952	1.132099
32.13914	2390.103	59.22968	-37.52319	1.102656
32.19309	2388.125	59.20907	-37.52524	1.072972
32.24704	2386.143	59.18333	-37.52547	1.043441
32.30099	2384.154	59.14663	-37.52369	1.014441
32.35494	2382.156	59.09394	-37.51973	0.9863433
32.40889	2380.152	59.02322	-37.51347	0.9594882
32.46284	2378.142	58.93272	-37.50481	0.9342029
32.51679	2376.132	58.82038	-37.4937	0.9107681
32.57074	2374.127	58.68459	-37.48014	0.8894203
32.62469	2372.125	58.53024	-37.46415	0.8703321
32.67864	2370.125	58.37353	-37.44579	0.8536134
32.73259	2368.119	58.23241	-37.42515	0.8393241
32.78654	2366.106	58.11967	-37.40236	0.8274767
32.84049	2364.087	58.04159	-37.37757	0.8180327
32.89444	2362.062	57.99921	-37.35098	0.8109066
32.94839	2360.034	57.99493	-37.32278	0.805959
33.00234	2358.005	58.03094	-37.29322	0.8029859
33.05629	2355.977	58.10549	-37.26254	0.8017393
33.11024	2353.95	58.21377	-37.23095	0.8019432
33.16419	2351.921	58.34854	-37.19867	0.8033032
33.21814	2349.887	58.50012	-37.16593	0.8055434
33.27209	2347.847	58.66172	-37.13296	0.8083975
33.32604	2345.797	58.82477	-37.09999	0.8116372
33.37999	2343.736	58.98117	-37.06725	0.8150775
33.43394	2341.666	59.1216	-37.03493	0.8185821
33.48789	2339.588	59.23902	-37.00324	0.8220586
33.54184	2337.501	59.33408	-36.97234	0.8254671
33.59579	2335.402	59.41275	-36.94238	0.8288084
33.64974	2333.293	59.47798	-36.91348	0.8321003
33.70369	2331.184	59.52903	-36.88575	0.8353822
33.75764	2329.079	59.56644	-36.85925	0.8387064
33.81159	2326.981	59.59077	-36.83403	0.8421247
33.86554	2324.894	59.60448	-36.81012	0.8457004
33.91949	2322.819	59.6091	-36.78751	0.8495041
33.97343	2320.762	59.60398	-36.76613	0.8536214
34.02739	2318.728	59.58462	-36.74591	0.8581513
34.08134	2316.72	59.54367	-36.72675	0.8632095
34.13528	2314.736	59.47275	-36.70854	0.8689266
34.18924	2312.769	59.36417	-36.69115	0.8754188
34.24319	2310.815	59.21771	-36.67447	0.8827889
34.29713	2308.868	59.0393	-36.65837	0.891125
34.35109	2306.929	58.83568	-36.64269	0.9005027
34.40503	2304.998	58.61504	-36.62728	0.9109961
34.45898	2303.075	58.38375	-36.61197	0.9226757
34.51294	2301.164	58.1444	-36.59666	0.9355857
34.56688	2299.272	57.89619	-36.5812	0.9497315
34.62083	2297.401	57.64515	-36.5655	0.9650598
34.67479	2295.548	57.40026	-36.54946	0.9814702
34.72873	2293.704	57.17234	-36.53298	0.9988089
34.78268	2291.864	56.97076	-36.51599	1.016869
34.83663	2290.023	56.80065	-36.49846	1.035385
34.89058	2288.176	56.66197	-36.48037	1.054033
34.94453	2286.323	56.55161	-36.46173	1.07245
34.99848	2284.461	56.46036	-36.44263	1.09023
35.05243	2282.591	56.37803	-36.42313	1.106948
35.10638	2280.714	56.29903	-36.40333	1.122176
35.16033	2278.833	56.22554	-36.38334	1.135511
35.21428	2276.952	56.16506	-36.36329	1.146603
35.26823	2275.072	56.12315	-36.34332	1.155152
35.32218	2273.189	56.10015	-36.32361	1.160905
35.37613	2271.302	56.09194	-36.30434	1.163677
35.43008	2269.406	56.09364	-36.28569	1.163347
35.48403	2267.498	56.10294	-36.26784	1.159883
35.53798	2265.569	56.1213	-36.25094	1.15332
35.59193	2263.614	56.14845	-36.23512	1.143768
35.64588	2261.633	56.18353	-36.22045	1.131394
35.69983	2259.63	56.22415	-36.207	1.11642
35.75378	2257.608	56.26488	-36.19477	1.099117
35.80773	2255.567	56.29871	-36.18377	1.079794
35.86168	2253.508	56.3193	-36.17395	1.058791
35.91563	2251.434	56.32151	-36.16523	1.036461
35.96958	2249.353	56.30426	-36.15751	1.013185
36.02353	2247.275	56.27106	-36.15064	0.9893583
36.07748	2245.208	56.22579	-36.14447	0.9653848
36.13143	2243.159	56.1698	-36.13884	0.94169
36.18538	2241.129	56.10504	-36.13359	0.9186913
36.23933	2239.119	56.03536	-36.12855	0.8968072
36.29328	2237.124	55.96401	-36.12357	0.8764433
36.34723	2235.139	55.89312	-36.11849	0.8580126
36.40118	2233.157	55.82654	-36.11315	0.8419155
36.45513	2231.172	55.76445	-36.10741	0.8285245
36.50908	2229.181	55.70417	-36.10111	0.8181651
36.56303	2227.189	55.64241	-36.09414	0.8110969
36.61698	2225.199	55.57624	-36.08638	0.8075052
36.67093	2223.214	55.50177	-36.07771	0.8074917
36.72488	2221.237	55.41766	-36.06801	0.8110773
36.77883	2219.267	55.32751	-36.05718	0.818201
36.83278	2217.307	55.23726	-36.04512	0.8287319
36.88673	2215.361	55.15332	-36.03176	0.842459
36.94068	2213.431	55.07961	-36.01704	0.8590875
36.99463	2211.516	55.01716	-36.00089	0.8782455
37.04858	2209.613	54.96658	-35.98329	0.8995187
37.10253	2207.714	54.93102	-35.96418	0.9224385
37.15648	2205.816	54.91584	-35.94355	0.9465254
37.21043	2203.914	54.92778	-35.92138	0.9713127
37.26437	2202.004	54.96967	-35.89766	0.9963433
37.31833	2200.084	55.03806	-35.87246	1.021189
37.37228	2198.155	55.12296	-35.84583	1.04545
37.42622	2196.218	55.21162	-35.81787	1.068753
37.48018	2194.275	55.2916	-35.78875	1.090758
37.53412	2192.325	55.35163	-35.75863	1.111165
37.58807	2190.372	55.3834	-35.72773	1.129722
37.64202	2188.417	55.38385	-35.69626	1.146238
37.69597	2186.467	55.35518	-35.6645	1.160586
37.74992	2184.525	55.30145	-35.63268	1.172702
37.80387	2182.596	55.22848	-35.60107	1.182554
37.85782	2180.679	55.14304	-35.56987	1.190149
37.91177	2178.775	55.05094	-35.53931	1.195513
37.96572	2176.882	54.95799	-35.50954	1.198725
38.01967	2175.001	54.86863	-35.48069	1.199901
38.07362	2173.132	54.78365	-35.45287	1.199181
38.12757	2171.272	54.70394	-35.42616	1.196739
38.18152	2169.422	54.62952	-35.40061	1.192771
38.23547	2167.576	54.55725	-35.37627	1.187484
38.28942	2165.727	54.48082	-35.3532	1.181122
38.34337	2163.874	54.39426	-35.33142	1.173946
38.39732	2162.013	54.29145	-35.31094	1.166246
38.45127	2160.146	54.16727	-35.2918	1.158329
38.50522	2158.275	54.01685	-35.27403	1.150518
38.55917	2156.402	53.83847	-35.25766	1.143129
38.61312	2154.531	53.63771	-35.24273	1.136479
38.66707	2152.661	53.42226	-35.22924	1.130859
38.72102	2150.792	53.20195	-35.21724	1.126526
38.77497	2148.921	52.98885	-35.20668	1.123701
38.82892	2147.046	52.79439	-35.19755	1.122527
38.88287	2145.163	52.62606	-35.18975	1.123077
38.93682	2143.269	52.4853	-35.1832	1.12534
38.99077	2141.366	52.36853	-35.17775	1.129228
39.04472	2139.454	52.26778	-35.17323	1.134577
39.09867	2137.531	52.17586	-35.16944	1.14115
39.15262	2135.596	52.08646	-35.16615	1.148668
39.20657	2133.65	51.99677	-35.16307	1.156805
39.26052	2131.698	51.90663	-35.15992	1.165225
39.31447	2129.743	51.81607	-35.15638	1.173585
39.36842	2127.791	51.72698	-35.15216	1.181542
39.42237	2125.845	51.64428	-35.14698	1.188755
39.47632	2123.906	51.57336	-35.14059	1.194909
39.53027	2121.979	51.52035	-35.13278	1.199715
39.58422	2120.064	51.4882	-35.1234	1.202936
39.63817	2118.165	51.4795	-35.11233	1.204406
39.69212	2116.284	51.49604	-35.09951	1.204024
39.74607	2114.419	51.53765	-35.08493	1.20174
39.80002	2112.566	51.60007	-35.06859	1.197541
39.85397	2110.722	51.67623	-35.05055	1.191427
39.90792	2108.884	51.75793	-35.03086	1.183393
39.96186	2107.047	51.83825	-35.00959	1.173455
40.01582	2105.207	51.91375	-34.98681	1.161637
40.06977	2103.36	51.98284	-34.96259	1.147981
40.12371	2101.506	52.04527	-34.93702	1.132552
40.17767	2099.644	52.09908	-34.9102	1.11543
40.23162	2097.772	52.14271	-34.88223	1.096716
40.28556	2095.892	52.17404	-34.85325	1.076539
40.33952	2094.003	52.19263	-34.82338	1.055043
40.39346	2092.106	52.20097	-34.79275	1.032393
40.44741	2090.198	52.20231	-34.7615	1.008803
40.50137	2088.28	52.19406	-34.72978	0.9845099
40.55531	2086.353	52.17254	-34.69774	0.9598017
40.60926	2084.417	52.13379	-34.66556	0.9349946
40.66322	2082.47	52.07569	-34.6334	0.9104304
40.71716	2080.516	51.99789	-34.60146	0.886464
40.77111	2078.552	51.90033	-34.5699	0.8634447
40.82506	2076.58	51.78247	-34.53888	0.8417057
40.87901	2074.599	51.64436	-34.50856	0.821566
40.93296	2072.615	51.48701	-34.4791	0.8033291
40.98691	2070.633	51.31204	-34.4506	0.7872721
41.04086	2068.661	51.12223	-34.42318	0.7736241
41.09481	2066.704	50.92387	-34.3969	0.7625464
41.14876	2064.765	50.72349	-34.37178	0.7541389
41.20271	2062.85	50.528	-34.34783	0.748397
41.25666	2060.959	50.34303	-34.32497	0.7452386
41.31061	2059.094	50.17464	-34.3031	0.7444777
41.36456	2057.257	50.02831	-34.28212	0.7458324
41.41851	2055.452	49.90914	-34.26187	0.7489371
41.47246	2053.677	49.81781	-34.24225	0.7533646
41.52641	2051.928	49.75161	-34.2231	0.7586629
41.58036	2050.199	49.70583	-34.2043	0.7643893
41.63431	2048.485	49.67743	-34.18572	0.7701368
41.68826	2046.778	49.66648	-34.16724	0.7755491
41.74221	2045.072	49.67303	-34.14878	0.7803285
41.79616	2043.365	49.69273	-34.13027	0.7842231
41.85011	2041.651	49.71896	-34.11167	0.7870387
41.90406	2039.927	49.74678	-34.09295	0.7886151
41.95801	2038.194	49.77364	-34.07409	0.7888515
42.01196	2036.45	49.79856	-34.05507	0.7876844
42.06591	2034.696	49.82126	-34.03593	0.7850847
42.11986	2032.933	49.84465	-34.01668	0.7810572
42.17381	2031.161	49.87134	-33.99739	0.7756184
42.22776	2029.379	49.90155	-33.97811	0.7688055
42.28171	2027.586	49.93365	-33.95892	0.7606635
42.33566	2025.782	49.96561	-33.93987	0.75126
42.38961	2023.967	49.99658	-33.92104	0.7406855
42.44356	2022.141	50.02782	-33.90246	0.7290661
42.49751	2020.308	50.05767	-33.88416	0.7165789
42.55146	2018.472	50.0814	-33.86615	0.7034604
42.60541	2016.637	50.09416	-33.84842	0.6900049
42.65936	2014.803	50.09092	-33.83092	0.6765446
42.71331	2012.966	50.06864	-33.81361	0.6634401
42.76726	2011.122	50.02808	-33.79642	0.6510702
42.82121	2009.265	49.97208	-33.77929	0.6398122
42.87516	2007.395	49.90411	-33.76217	0.6300449
42.92911	2005.516	49.82928	-33.74499	0.6221331
42.98306	2003.63	49.75107	-33.72767	0.6163964
43.03701	2001.745	49.67139	-33.71012	0.613097
43.09095	1999.866	49.5891	-33.69227	0.6124265
43.14491	1997.999	49.50214	-33.674	0.6145098
43.19886	1996.142	49.41015	-33.6552	0.6194217
43.2528	1994.292	49.31336	-33.63574	0.6271738
43.30676	1992.447	49.21568	-33.61547	0.6377227
43.36071	1990.605	49.12522	-33.59423	0.6509758
43.41465	1988.764	49.04835	-33.57188	0.6667829
43.46861	1986.922	48.98923	-33.54828	0.6849565
43.52255	1985.078	48.95104	-33.52332	0.7052815
43.5765	1983.232	48.93428	-33.49691	0.727514
43.63046	1981.384	48.94184	-33.469	0.7513986
43.6844	1979.535	48.97588	-33.43954	0.7766814
43.73835	1977.689	49.02987	-33.40856	0.8030999
43.7923	1975.847	49.0901	-33.37609	0.8303926
43.84625	1974.012	49.14246	-33.3422	0.8583001
43.9002	1972.188	49.17827	-33.30701	0.886577
43.95415	1970.369	49.19509	-33.27065	0.9149988
44.0081	1968.551	49.19431	-33.23329	0.9433579
44.06205	1966.729	49.18057	-33.19511	0.9714641
44.116	1964.903	49.15877	-33.15632	0.9991204
44.16995	1963.074	49.13119	-33.11716	1.026133
44.2239	1961.245	49.09926	-33.07788	1.052302
44.27785	1959.413	49.06533	-33.0387	1.077417
44.3318	1957.58	49.03091	-32.99987	1.101258
44.38575	1955.743	48.99643	-32.9616	1.123594
44.4397	1953.905	48.96203	-32.92411	1.144203
44.49365	1952.072	48.92598	-32.8876	1.162866
44.5476	1950.25	48.88455	-32.85225	1.179371
44.60155	1948.445	48.8314	-32.81823	1.193527
44.6555	1946.658	48.76125	-32.78571	1.205161
44.70945	1944.891	48.67361	-32.75481	1.214132
44.7634	1943.138	48.57082	-32.72568	1.220351
44.81735	1941.399	48.4544	-32.69839	1.223788
44.8713	1939.672	48.32677	-32.67307	1.224481
44.92525	1937.953	48.1935	-32.64978	1.222542
44.9792	1936.241	48.06174	-32.62861	1.21814
45.03315	1934.534	47.93787	-32.6096	1.211489
45.0871	1932.832	47.82482	-32.5928	1.202825
45.14105	1931.138	47.72514	-32.57824	1.192403
45.195	1929.453	47.63908	-32.56589	1.180488
45.24895	1927.782	47.56518	-32.55572	1.167336
45.3029	1926.127	47.5013	-32.54768	1.153191
45.35685	1924.486	47.44186	-32.54171	1.138276
45.4108	1922.855	47.37701	-32.53772	1.122788
45.46475	1921.232	47.29619	-32.53565	1.106913
45.5187	1919.616	47.19255	-32.53542	1.090802
45.57265	1918.002	47.06857	-32.53698	1.074602
45.6266	1916.387	46.93316	-32.54026	1.058442
45.68055	1914.767	46.7953	-32.54521	1.042454
45.7345	1913.136	46.66062	-32.55179	1.026773
45.78845	1911.491	46.53149	-32.55994	1.011529
45.8424	1909.833	46.40771	-32.56962	0.9968547
45.89635	1908.161	46.28895	-32.58075	0.9828915
45.95029	1906.476	46.17369	-32.59326	0.9697779
46.00425	1904.778	46.0593	-32.60707	0.9576351
46.0582	1903.065	45.94403	-32.6221	0.9465709
46.11214	1901.336	45.82563	-32.63822	0.9366589
46.1661	1899.587	45.70112	-32.6553	0.9279521
46.22005	1897.817	45.56998	-32.67318	0.9204659
46.27399	1896.025	45.43628	-32.69166	0.9141783
46.32795	1894.212	45.30718	-32.71048	0.9090245
46.38189	1892.381	45.19306	-32.7294	0.9048988
46.43584	1890.537	45.10749	-32.74812	0.9016806
46.4898	1888.686	45.05826	-32.76635	0.8992388
46.54374	1886.833	45.04591	-32.78377	0.8974285
46.59769	1884.984	45.06588	-32.80007	0.8960897
46.65165	1883.14	45.11372	-32.81495	0.8950732
46.70559	1881.301	45.18673	-32.82813	0.8942375
46.75954	1879.465	45.28022	-32.83933	0.8934655
46.81349	1877.635	45.38959	-32.84828	0.8926708
46.86744	1875.812	45.50681	-32.85473	0.8918097
46.92139	1873.996	45.62601	-32.85848	0.890864
46.97534	1872.182	45.74416	-32.85936	0.8898498
47.02929	1870.366	45.85723	-32.85723	0.8887899
47.08324	1868.544	45.96157	-32.85201	0.8877283
47.13719	1866.714	46.05689	-32.84361	0.8867424
47.19114	1864.88	46.14365	-32.83196	0.8859327
47.24509	1863.044	46.22148	-32.81704	0.8854188
47.29904	1861.21	46.28975	-32.79881	0.8853319
47.35299	1859.379	46.34714	-32.77732	0.8857958
47.40694	1857.55	46.38968	-32.75262	0.8869166
47.46089	1855.724	46.41323	-32.72479	0.8887838
47.51484	1853.901	46.41571	-32.69395	0.891446
47.56879	1852.078	46.39844	-32.66024	0.8949311
47.62274	1850.254	46.36389	-32.62382	0.899234
47.67669	1848.428	46.31161	-32.58488	0.9043323
47.73064	1846.6	46.24007	-32.54363	0.9101953
47.78459	1844.769	46.15026	-32.50027	0.9167778
47.83854	1842.932	46.04748	-32.45503	0.9240322
47.89249	1841.088	45.9365	-32.40814	0.9319174
47.94644	1839.238	45.81887	-32.35983	0.9403945
48.00039	1837.389	45.69478	-32.31038	0.9494473
48.05434	1835.543	45.56422	-32.26005	0.9590648
48.10829	1833.706	45.42509	-32.20911	0.9692505
48.16224	1831.878	45.27373	-32.15782	0.979997
48.21619	1830.062	45.10797	-32.10642	0.9912561
48.27014	1828.256	44.92774	-32.05513	1.002936
48.32409	1826.463	44.73631	-32.00414	1.014892
48.37804	1824.687	44.54174	-31.95364	1.02692
48.43199	1822.933	44.35059	-31.90379	1.038766
48.48594	1821.207	44.16652	-31.85471	1.050125
48.53989	1819.511	43.99405	-31.80652	1.060653
48.59384	1817.845	43.83989	-31.75928	1.069979
48.64779	1816.208	43.71384	-31.71304	1.077716
48.70174	1814.596	43.61999	-31.66783	1.083483
48.75569	1813.006	43.55838	-31.62366	1.086911
48.80964	1811.435	43.52348	-31.58052	1.087675
48.86359	1809.883	43.5075	-31.53841	1.085493
48.91754	1808.348	43.50374	-31.49731	1.080136
48.97149	1806.822	43.50499	-31.45723	1.071441
49.02544	1805.3	43.50312	-31.41818	1.059304
49.07938	1803.776	43.49223	-31.38017	1.043689
49.13334	1802.245	43.47053	-31.34323	1.024649
49.18729	1800.701	43.43581	-31.3074	1.002326
49.24123	1799.144	43.38877	-31.27272	0.9769515
49.29519	1797.572	43.33207	-31.23927	0.948838
49.34914	1795.989	43.26901	-31.20713	0.9183656
49.40308	1794.398	43.20069	-31.17638	0.8859661
49.45704	1792.803	43.12789	-31.14711	0.8521262
49.51098	1791.205	43.0523	-31.11938	0.8173643
49.56493	1789.601	42.97909	-31.09323	0.7822208
49.61889	1787.988	42.91114	-31.0687	0.7472493
49.67283	1786.362	42.84424	-31.04578	0.7130036
49.72678	1784.723	42.77152	-31.02445	0.6800208
49.78074	1783.071	42.68863	-31.00468	0.6488131
49.83468	1781.4	42.59433	-30.98641	0.6198503
49.88863	1779.707	42.49037	-30.96956	0.5935507
49.94258	1777.993	42.38048	-30.95403	0.5702838
49.99653	1776.262	42.27143	-30.93974	0.5503631
50.05048	1774.517	42.17212	-30.92658	0.5340512
50.10443	1772.764	42.08934	-30.9144	0.521547
50.15838	1771.01	42.02636	-30.90308	0.5129723
50.21233	1769.261	41.9853	-30.89243	0.5083658
50.26628	1767.519	41.96604	-30.8823	0.5076891
50.32023	1765.788	41.96904	-30.87252	0.5108386
50.37418	1764.067	41.99339	-30.86289	0.5176597
50.42813	1762.356	42.03813	-30.85324	0.5279375
50.48208	1760.655	42.0999	-30.84336	0.541407
50.53603	1758.958	42.17377	-30.83304	0.5577643
50.58998	1757.263	42.25592	-30.82206	0.5766726
50.64393	1755.565	42.34575	-30.81017	0.5977722
50.69788	1753.864	42.44352	-30.79715	0.6206892
50.75183	1752.158	42.55095	-30.78278	0.645054
50.80578	1750.451	42.66798	-30.76686	0.6705121
50.85973	1748.743	42.79271	-30.74923	0.6967323
50.91368	1747.032	42.92282	-30.72977	0.7234123
50.96763	1745.316	43.0563	-30.70838	0.7502782
51.02158	1743.596	43.18926	-30.68502	0.777081
51.07553	1741.876	43.31768	-30.65967	0.8036066
51.12948	1740.158	43.43493	-30.63236	0.8296798
51.18343	1738.443	43.53462	-30.60316	0.8551592
51.23738	1736.732	43.61194	-30.57217	0.8799252
51.29133	1735.022	43.66339	-30.53955	0.9038677
51.34528	1733.318	43.6871	-30.50552	0.9268939
51.39923	1731.622	43.6823	-30.47029	0.9489251
51.45318	1729.936	43.64826	-30.4341	0.9699036
51.50713	1728.262	43.58729	-30.39724	0.9897928
51.56108	1726.597	43.50578	-30.35997	1.008568
51.61503	1724.939	43.41014	-30.32256	1.02622
51.66898	1723.288	43.30571	-30.28528	1.042755
51.72293	1721.641	43.19583	-30.2484	1.058171
51.77688	1719.996	43.08092	-30.21216	1.072478
51.83083	1718.355	42.96011	-30.17679	1.085681
51.88478	1716.717	42.83007	-30.1425	1.097799
51.93872	1715.086	42.68441	-30.10952	1.10885
51.99268	1713.463	42.51743	-30.07803	1.118863
52.04663	1711.85	42.32671	-30.04818	1.127877
52.10057	1710.25	42.11308	-30.02009	1.135928
52.15453	1708.663	41.88062	-29.99385	1.143043
52.20848	1707.089	41.63456	-29.96949	1.149233
52.26242	1705.531	41.38025	-29.94702	1.154493
52.31638	1703.99	41.12346	-29.92641	1.158813
52.37032	1702.462	40.87305	-29.90759	1.162175
52.42427	1700.947	40.6372	-29.89043	1.164534
52.47823	1699.439	40.42281	-29.87478	1.16583
52.53217	1697.931	40.23161	-29.86045	1.165981
52.58612	1696.419	40.06111	-29.84721	1.164892
52.64007	1694.898	39.90791	-29.83484	1.16245
52.69402	1693.371	39.76972	-29.82309	1.158527
52.74797	1691.842	39.64608	-29.81175	1.152995
52.80192	1690.315	39.53468	-29.80062	1.145735
52.85587	1688.791	39.43244	-29.78954	1.136642
52.90982	1687.269	39.33686	-29.77834	1.125645
52.96377	1685.75	39.24791	-29.76691	1.112701
53.01772	1684.239	39.1679	-29.75518	1.097798
53.07167	1682.736	39.09788	-29.74308	1.080969
53.12562	1681.24	39.03843	-29.73059	1.0623
53.17957	1679.747	38.99124	-29.71772	1.041921
53.23352	1678.249	38.9569	-29.70452	1.02001
53.28747	1676.736	38.9333	-29.69104	0.9967681
53.34142	1675.201	38.91737	-29.67736	0.9724118
53.39537	1673.637	38.90611	-29.66356	0.9471656
53.44932	1672.042	38.89607	-29.64972	0.9212477
53.50327	1670.418	38.88593	-29.63593	0.894874
53.55722	1668.767	38.87583	-29.62231	0.8682496
53.61117	1667.098	38.8686	-29.60896	0.8415608
53.66512	1665.418	38.86582	-29.59598	0.8149728
53.71907	1663.735	38.86748	-29.58351	0.7886242
53.77302	1662.052	38.87561	-29.57165	0.7626386
53.82697	1660.37	38.89472	-29.56054	0.7371281
53.88092	1658.689	38.93047	-29.55029	0.7122046
53.93487	1657.007	38.98782	-29.54106	0.6879897
53.98882	1655.323	39.06791	-29.53297	0.6646125
54.04277	1653.631	39.16769	-29.52614	0.6422135
54.09672	1651.928	39.28242	-29.52065	0.6209367
54.15067	1650.211	39.40558	-29.51652	0.6009149
54.20462	1648.482	39.52813	-29.51374	0.5822769
54.25857	1646.746	39.64315	-29.51226	0.5651442
54.31252	1645.011	39.74574	-29.51197	0.5496377
54.36647	1643.283	39.83189	-29.51272	0.5358741
54.42042	1641.567	39.89875	-29.51434	0.5239405
54.47437	1639.862	39.94429	-29.51659	0.5138937
54.52832	1638.169	39.9674	-29.51921	0.5057466
54.58227	1636.485	39.96886	-29.52188	0.4994681
54.63622	1634.814	39.95304	-29.52428	0.4949907
54.69017	1633.16	39.92801	-29.52608	0.4922025
54.74412	1631.531	39.90051	-29.52692	0.4909654
54.79807	1629.93	39.87471	-29.52649	0.4911166
54.85202	1628.354	39.84892	-29.52443	0.4924887
54.90597	1626.8	39.81852	-29.52046	0.4949193
54.95992	1625.265	39.78119	-29.51427	0.4982669
55.01387	1623.747	39.7366	-29.5056	0.5024226
55.06781	1622.246	39.68227	-29.49424	0.5073181
55.12177	1620.76	39.61371	-29.48	0.5129394
55.17572	1619.29	39.52765	-29.46276	0.5193346
55.22966	1617.832	39.42342	-29.44242	0.5266101
55.28362	1616.381	39.30368	-29.41895	0.5349156
55.33757	1614.934	39.17361	-29.39236	0.5444229
55.39151	1613.487	39.03823	-29.36267	0.5553113
55.44547	1612.037	38.90107	-29.32998	0.5677459
55.49941	1610.581	38.76671	-29.29439	0.581865
55.55336	1609.115	38.64293	-29.25605	0.5977583
55.60732	1607.636	38.53544	-29.21515	0.615449
55.66126	1606.142	38.44404	-29.17192	0.6348727
55.71521	1604.632	38.36614	-29.12658	0.6558741
55.76917	1603.104	38.29678	-29.0794	0.6782017
55.82311	1601.562	38.23012	-29.03066	0.701529
55.87706	1600.008	38.163	-28.98065	0.7254652
55.93101	1598.45	38.0952	-28.92972	0.7495793
55.98496	1596.888	38.02498	-28.87821	0.773427
56.03891	1595.321	37.95039	-28.82648	0.7965633
56.09286	1593.743	37.87066	-28.77489	0.8185628
56.14681	1592.15	37.7844	-28.72379	0.8390339
56.20076	1590.539	37.69341	-28.67353	0.8576245
56.25471	1588.911	37.60389	-28.62441	0.8740467
56.30866	1587.266	37.52327	-28.57674	0.8880849
56.36261	1585.609	37.45866	-28.53078	0.8996029
56.41656	1583.947	37.41521	-28.48675	0.9085347
56.47051	1582.28	37.39387	-28.44482	0.9148848
56.52446	1580.613	37.39204	-28.40514	0.9187094
56.57841	1578.947	37.40543	-28.36776	0.9201201
56.63236	1577.287	37.42982	-28.33268	0.919278
56.68631	1575.642	37.46545	-28.29987	0.9163917
56.74026	1574.018	37.51355	-28.26924	0.9117073
56.79421	1572.416	37.57043	-28.24067	0.9055043
56.84816	1570.834	37.62814	-28.21399	0.8980616
56.90211	1569.266	37.67807	-28.18902	0.8896423
56.95606	1567.709	37.71595	-28.16551	0.8804861
57.01001	1566.161	37.7424	-28.14318	0.8708157
57.06396	1564.622	37.76034	-28.12173	0.860836
57.11791	1563.094	37.77244	-28.10085	0.8507479
57.17186	1561.578	37.77881	-28.08024	0.8407499
57.22581	1560.074	37.77736	-28.05958	0.8310385
57.27976	1558.58	37.76516	-28.03862	0.821795
57.33371	1557.093	37.73934	-28.01709	0.8131768
57.38766	1555.611	37.69689	-27.9948	0.8053281
57.44161	1554.134	37.63782	-27.97157	0.7983797
57.49556	1552.662	37.56406	-27.9473	0.792456
57.54951	1551.199	37.47859	-27.92192	0.7876686
57.60346	1549.749	37.38317	-27.8954	0.7841006
57.65741	1548.316	37.27927	-27.86771	0.7817952
57.71136	1546.903	37.16666	-27.83884	0.7807585
57.76531	1545.508	37.04643	-27.80881	0.7809586
57.81926	1544.127	36.92242	-27.7776	0.7823364
57.87321	1542.755	36.80079	-27.74524	0.7848078
57.92715	1541.385	36.68584	-27.71177	0.7882648
57.98111	1540.01	36.57811	-27.67724	0.7925754
58.03506	1538.623	36.47798	-27.64172	0.7975909
58.089	1537.223	36.38617	-27.6053	0.803156
58.14296	1535.808	36.30255	-27.56809	0.8091162
58.1969	1534.378	36.22777	-27.53021	0.8153132
58.25085	1532.933	36.16576	-27.49179	0.8215881
58.30481	1531.479	36.11989	-27.45297	0.8277868
58.35875	1530.019	36.0903	-27.41392	0.8337575
58.4127	1528.556	36.07392	-27.37477	0.8393568
58.46666	1527.09	36.06817	-27.33569	0.8444456
58.5206	1525.62	36.06903	-27.2968	0.8488926
58.57455	1524.142	36.06988	-27.25822	0.8525734
58.6285	1522.655	36.06643	-27.22004	0.8553797
58.68245	1521.161	36.0586	-27.18231	0.8572292
58.7364	1519.66	36.04782	-27.14509	0.8580642
58.79035	1518.154	36.03561	-27.10837	0.8578485
58.8443	1516.643	36.02104	-27.07213	0.8565548
58.89825	1515.128	36.00199	-27.03631	0.8541492
58.9522	1513.608	35.97685	-27.0008	0.8506084
59.00615	1512.084	35.9445	-26.96544	0.8459224
59.0601	1510.556	35.90462	-26.93002	0.8401
59.11405	1509.026	35.85883	-26.89435	0.8331624
59.168	1507.499	35.80813	-26.8582	0.8251558
59.22195	1505.977	35.75269	-26.82137	0.8161601
59.2759	1504.462	35.69139	-26.78366	0.8062745
59.32985	1502.954	35.6224	-26.74488	0.7955979
59.3838	1501.455	35.54823	-26.70486	0.7842273
59.43775	1499.964	35.47615	-26.66348	0.7722533
59.4917	1498.477	35.41224	-26.62062	0.7597755
59.54565	1496.994	35.35735	-26.57625	0.7468954
59.5996	1495.514	35.30927	-26.53033	0.7337035
59.65355	1494.038	35.26361	-26.48285	0.7202724
59.7075	1492.567	35.21424	-26.43381	0.706643
59.76145	1491.105	35.15577	-26.38324	0.6928378
59.8154	1489.653	35.08806	-26.33117	0.6788602
59.86935	1488.213	35.01617	-26.27765	0.664708
59.9233	1486.784	34.94525	-26.22274	0.650372
59.97725	1485.362	34.87931	-26.1665	0.6358397
60.0312	1483.943	34.82145	-26.10899	0.621095
60.08515	1482.525	34.77155	-26.05029	0.6061191
60.1391	1481.104	34.72819	-25.9905	0.5908952
60.19305	1479.684	34.69334	-25.92969	0.5754068
60.247	1478.266	34.67137	-25.86798	0.5596414
60.30095	1476.855	34.66669	-25.80545	0.5435938
60.3549	1475.451	34.67822	-25.74223	0.5272628
60.40885	1474.053	34.7006	-25.6784	0.5106449
60.4628	1472.662	34.72667	-25.61408	0.4937281
60.51675	1471.277	34.75086	-25.54938	0.4764994
60.5707	1469.9	34.77076	-25.48442	0.4589672
60.62465	1468.53	34.78296	-25.4193	0.4411758
60.6786	1467.169	34.78326	-25.3541	0.4232176
60.73255	1465.816	34.76613	-25.28888	0.4052401
60.7865	1464.474	34.72807	-25.22369	0.3874511
60.84045	1463.14	34.67059	-25.15855	0.3701272
60.8944	1461.812	34.60037	-25.09344	0.353596
60.94835	1460.489	34.52687	-25.02831	0.3382458
61.0023	1459.17	34.46014	-24.96307	0.3245186
61.05624	1457.851	34.41127	-24.89759	0.31287
61.1102	1456.536	34.38588	-24.83172	0.3037301
61.16415	1455.228	34.38344	-24.76528	0.2974609
61.21809	1453.931	34.39825	-24.69807	0.2943141
61.27205	1452.649	34.41795	-24.62988	0.29439
61.326	1451.382	34.42907	-24.56048	0.2976129
61.37994	1450.129	34.42338	-24.48959	0.3037336
61.4339	1448.885	34.40025	-24.41697	0.3123718
61.48784	1447.648	34.36171	-24.34234	0.323074
61.54179	1446.414	34.30777	-24.26544	0.3353522
61.59575	1445.182	34.24046	-24.18602	0.3487234
61.64969	1443.949	34.16721	-24.10384	0.3627197
61.70364	1442.713	34.09872	-24.01869	0.3769077
61.7576	1441.469	34.04152	-23.93035	0.3908745
61.81154	1440.216	33.99781	-23.83865	0.4042454
61.86549	1438.952	33.96954	-23.74343	0.416679
61.91944	1437.68	33.96059	-23.64452	0.4278827
61.97339	1436.399	33.97545	-23.54182	0.4375978
62.02734	1435.106	34.01421	-23.43522	0.4456076
62.08129	1433.8	34.0719	-23.32463	0.4517148
62.13524	1432.481	34.14172	-23.21001	0.4557531
62.18919	1431.151	34.21954	-23.0913	0.4575906
62.24314	1429.814	34.30162	-22.96849	0.4571125
62.29709	1428.476	34.38438	-22.84155	0.4542571
62.35104	1427.138	34.46263	-22.71048	0.4489946
62.40499	1425.804	34.53188	-22.57525	0.4413388
62.45894	1424.478	34.58833	-22.43583	0.4313539
62.51289	1423.159	34.63342	-22.29217	0.4191558
62.56684	1421.848	34.67175	-22.14424	0.4048978
62.62079	1420.542	34.70804	-21.99198	0.3887712
62.67474	1419.24	34.74341	-21.83533	0.3709795
62.72869	1417.939	34.7789	-21.67424	0.3517358
62.78264	1416.637	34.81322	-21.50863	0.3312462
62.83659	1415.336	34.84335	-21.33842	0.309733
62.89054	1414.04	34.86428	-21.16351	0.2874421
62.94449	1412.753	34.87123	-20.98376	0.2646157
62.99844	1411.479	34.86262	-20.79901	0.2415135
63.05239	1410.216	34.83956	-20.60907	0.2183966
63.10634	1408.967	34.80244	-20.41371	0.1955226
63.16029	1407.736	34.75028	-20.21267	0.1731643
63.21424	1406.528	34.68184	-20.00568	0.151628
63.26819	1405.346	34.59775	-19.79243	0.1313034
63.32214	1404.192	34.50065	-19.57256	0.1127221
63.37609	1403.064	34.39362	-19.34571	0.0966637
63.43004	1401.959	34.28216	-19.11146	0.08423658
63.48399	1400.877	34.17153	-18.86939	0.07680385
63.53794	1399.814	34.0631	-18.61903	0.07543315
63.59189	1398.769	33.95964	-18.35991	0.08010243
63.64584	1397.74	33.86829	-18.09157	0.08966114
63.69979	1396.728	33.79663	-17.81353	0.1026902
63.75374	1395.736	33.74717	-17.52533	0.1181194
63.80769	1394.763	33.71827	-17.22652	0.1353282
63.86164	1393.814	33.70583	-16.91667	0.1540203
63.91558	1392.892	33.70883	-16.59536	0.174095
63.96954	1391.997	33.72816	-16.26222	0.1955533
64.02348	1391.132	33.76279	-15.91686	0.2184563
64.07744	1390.298	33.80791	-15.55896	0.2429081
64.13139	1389.494	33.85918	-15.18816	0.2690349
64.18533	1388.717	33.91297	-14.80415	0.2969519
64.23929	1387.965	33.96657	-14.40657	0.3267763
64.29324	1387.232	34.01651	-13.99509	0.3585934
64.34718	1386.51	34.06228	-13.56936	0.3924769
64.40113	1385.793	34.1045	-13.12903	0.4284818
64.45509	1385.078	34.14364	-12.67374	0.4665991
64.50903	1384.36	34.18022	-12.2031	0.5067782
64.56298	1383.643	34.21272	-11.71672	0.5489621
64.61694	1382.93	34.24042	-11.21422	0.5930374
64.67088	1382.224	34.26511	-10.69518	0.6388656
64.72483	1381.53	34.28774	-10.1592	0.686291
64.77879	1380.847	34.30812	-9.605883	0.7351266
64.83273	1380.177	34.32524	-9.034784	0.7851751
64.88668	1379.523	34.33755	-8.445429	0.8362359
64.94064	1378.883	34.34513	-7.837334	0.8881189
64.99458	1378.26	34.3495	-7.209966	0.9406444
65.04853	1377.652	34.35379	-6.562735	0.9936556
65.10249	1377.063	34.36161	-5.895037	1.047011
65.15643	1376.492	34.37617	-5.206232	1.100629
65.21038	1375.942	34.40088	-4.495621	1.154469
65.26433	1375.414	34.43943	-3.762476	1.208483
65.31828	1374.909	34.49429	-3.006059	1.262688
65.37223	1374.429	34.56417	-2.225548	1.317124
65.42618	1373.98	34.64424	-1.420128	1.371812
65.48013	1373.568	34.72969	-0.5889345	1.426774
65.53408	1373.202	34.81878	0.2689368	1.482113
65.58803	1372.889	34.91143	1.154382	1.537883
65.64198	1372.633	35.00936	2.068309	1.594149
65.69593	1372.437	35.11484	3.011652	1.651029
65.74988	1372.301	35.22999	3.985269	1.708608
65.80383	1372.223	35.35588	4.990051	1.766996
65.85778	1372.205	35.49172	6.02688	1.826254
65.91173	1372.243	35.63464	7.096559	1.886462
65.96568	1372.337	35.78205	8.199907	1.947714
66.01963	1372.487	35.93343	9.337712	2.010061
66.07358	1372.694	36.08686	10.5107	2.073545
66.12753	1372.957	36.24018	11.71962	2.138272
66.18148	1373.278	36.39153	12.96517	2.204296
66.23543	1373.66	36.53699	14.24806	2.271619
66.28938	1374.105	36.67069	15.56902	2.340356
66.34333	1374.616	36.79065	16.9287	2.410534
66.39728	1375.196	36.89835	18.32783	2.482185
66.45123	1375.846	36.99666	19.7671	2.555368
66.50518	1376.567	37.08719	21.24717	2.630093
66.55913	1377.358	37.17311	22.76871	2.706364
66.61308	1378.221	37.26052	24.33238	2.784207
66.66703	1379.163	37.35585	25.93884	2.86357
66.72098	1380.191	37.46352	27.58869	2.944511
66.77493	1381.31	37.58625	29.28256	3.027009
66.82887	1382.524	37.72515	31.02109	3.110988
66.88283	1383.832	37.87937	32.80486	3.196495
66.93678	1385.234	38.04591	34.63447	3.283492
66.99072	1386.728	38.22062	36.51051	3.371981
67.04468	1388.313	38.39697	38.4336	3.461897
67.09863	1389.991	38.5667	40.40426	3.553324
67.15257	1391.763	38.72412	42.42309	3.646283
67.20653	1393.635	38.86679	44.4906	3.740817
67.26048	1395.613	38.997	46.60741	3.837068
67.31442	1397.7	39.11911	48.77399	3.935066
67.36838	1399.901	39.23843	50.99087	4.034925
67.42233	1402.22	39.36118	53.25866	4.136745
67.47627	1404.663	39.4942	55.57778	4.240641
67.53023	1407.236	39.64229	57.94872	4.346701
67.58418	1409.945	39.80744	60.37199	4.455117
67.63812	1412.795	39.99164	62.84796	4.565943
67.69207	1415.784	40.19445	65.37698	4.679293
67.74603	1418.913	40.41408	67.95943	4.79538
67.79997	1422.181	40.64854	70.59552	4.914153
67.85392	1425.586	40.89476	73.28539	5.035776
67.90788	1429.126	41.14817	76.02921	5.160371
67.96182	1432.8	41.40407	78.82688	5.287929
68.01577	1436.611	41.6601	81.67834	5.418368
68.06973	1440.562	41.91754	84.58339	5.551817
68.12367	1444.657	42.18075	87.54169	5.688088
68.17762	1448.901	42.45374	90.55288	5.827044
68.23158	1453.297	42.73977	93.61653	5.968574
68.28552	1457.847	43.04197	96.73207	6.112385
68.33947	1462.558	43.36354	99.89886	6.258269
68.39342	1467.432	43.70752	103.1163	6.40585
68.44737	1472.474	44.07486	106.3835	6.554923
68.50132	1477.685	44.4646	109.6998	6.705131
68.55527	1483.064	44.87602	113.0643	6.856137
68.60922	1488.615	45.3066	116.4759	7.007615
68.66317	1494.34	45.75198	119.9338	7.159225
68.71712	1500.245	46.2061	123.4369	7.310659
68.77107	1506.339	46.66294	126.9841	7.461523
68.82502	1512.631	47.11698	130.5744	7.611548
68.87897	1519.129	47.56267	134.2068	7.760382
68.93292	1525.844	47.99613	137.8801	7.90769
68.98687	1532.785	48.41537	141.5931	8.05303
69.04082	1539.958	48.82001	145.3449	8.196108
69.09477	1547.366	49.21351	149.1341	8.336537
69.14872	1555.012	49.60358	152.9597	8.473841
69.20267	1562.898	49.99979	156.8203	8.607703
69.25661	1571.025	50.40809	160.7144	8.737705
69.31057	1579.395	50.83204	164.6407	8.863459
69.36452	1588.005	51.27529	168.5975	8.984541
69.41846	1596.858	51.7414	172.5829	9.100609
69.47242	1605.957	52.23155	176.5951	9.21132
69.52637	1615.309	52.74258	180.6318	9.316299
69.58031	1624.914	53.27143	184.6906	9.415223
69.63427	1634.776	53.81792	188.7688	9.507814
69.68822	1644.899	54.3836	192.8634	9.593776
69.74216	1655.286	54.96991	196.9711	9.672758
69.79612	1665.937	55.57573	201.0884	9.744562
69.85007	1676.846	56.19583	205.2112	9.808873
69.90401	1688.012	56.82525	209.3351	9.865454
69.95796	1699.434	57.46021	213.4555	9.913998
70.01192	1711.11	58.10002	217.5671	9.954216
70.06586	1723.037	58.74716	221.6643	9.985774
70.11981	1735.209	59.40528	225.741	10.00831
70.17377	1747.624	60.07692	229.7909	10.02143
70.22771	1760.281	60.76425	233.8069	10.02475
70.28166	1773.181	61.46616	237.7817	10.01782
70.33562	1786.323	62.18203	241.7077	10.00034
70.38956	1799.704	62.90912	245.5768	9.971901
70.44351	1813.324	63.63995	249.3807	9.932178
70.49747	1827.181	64.36562	253.1105	9.880939
70.55141	1841.272	65.07746	256.7575	9.81784
70.60536	1855.598	65.76897	260.3126	9.742632
70.65932	1870.157	66.4343	263.7666	9.655072
70.71326	1884.955	67.06852	267.1103	9.555104
70.76721	1899.991	67.67155	270.3344	9.442451
70.82116	1915.262	68.2484	273.4299	9.31712
70.87511	1930.766	68.80824	276.3878	9.179081
70.92906	1946.503	69.36007	279.1995	9.028357
70.98301	1962.467	69.91364	281.8564	8.865084
71.03696	1978.66	70.47546	284.3505	8.689338
71.09091	1995.075	71.04715	286.6741	8.501602
71.14486	2011.709	71.62896	288.8202	8.301956
71.19881	2028.556	72.22186	290.782	8.0909
71.25276	2045.614	72.82237	292.5534	7.868846
71.30671	2062.885	73.42527	294.1289	7.636429
71.36066	2080.375	74.02563	295.5034	7.394207
71.41461	2098.09	74.61693	296.6728	7.142758
71.46856	2116.039	75.19244	297.6331	6.883299
71.52251	2134.227	75.74519	298.3812	6.615978
71.57646	2152.655	76.26846	298.9149	6.34203
71.63041	2171.324	76.75942	299.2324	6.06226
71.68436	2190.229	77.22012	299.3321	5.777668
71.73831	2209.357	77.65479	299.2139	5.489037
71.79226	2228.682	78.06754	298.8777	5.197473
71.84621	2248.17	78.4651	298.3242	4.903511
71.90016	2267.786	78.85146	297.5547	4.608366
71.95411	2287.491	79.22621	296.5711	4.312876
72.00806	2307.249	79.58652	295.3756	4.017436
72.06201	2327.02	79.93024	293.9711	3.723575
72.11596	2346.768	80.25151	292.3612	3.431569
72.16991	2366.459	80.54181	290.5494	3.142009
72.22386	2386.065	80.79102	288.5399	2.855838
72.27781	2405.562	80.9888	286.3373	2.573698
72.33176	2424.918	81.12937	283.9461	2.295947
72.3857	2444.103	81.2142	281.3716	2.023414
72.43966	2463.086	81.24482	278.6189	1.757157
72.49361	2481.832	81.2237	275.6934	1.497278
72.54755	2500.298	81.15617	272.6009	1.245102
72.60151	2518.434	81.04808	269.3474	1.001771
72.65546	2536.194	80.90487	265.9385	0.7702264
72.7094	2553.531	80.73363	262.3808	0.5560483
72.76336	2570.399	80.54082	258.6805	0.3769783
72.81731	2586.756	80.33266	254.8443	0.2877905
72.87125	2602.573	80.11652	250.879	0.3491469
72.92521	2617.831	79.89739	246.7915	0.5003881
72.97916	2632.527	79.67721	242.589	0.6779026
73.0331	2646.665	79.44918	238.2789	0.8605435
73.08706	2660.257	79.20078	233.8687	1.041697
73.14101	2673.32	78.92112	229.3663	1.218569
73.19495	2685.864	78.60146	224.7795	1.389806
73.2489	2697.899	78.2388	220.1167	1.554616
73.30286	2709.437	77.8354	215.386	1.712475
73.3568	2720.49	77.39675	210.5962	1.863007
73.41075	2731.067	76.93173	205.756	2.005885
73.46471	2741.175	76.45081	200.8744	2.140924
73.51865	2750.817	75.96891	195.9604	2.267902
73.5726	2760.002	75.49953	191.0233	2.386638
73.62656	2768.737	75.05788	186.0724	2.496988
73.6805	2777.038	74.65554	181.1172	2.598855
73.73445	2784.929	74.30099	176.1671	2.692036
73.78841	2792.437	73.99902	171.2317	2.776631
73.84235	2799.592	73.74812	166.3201	2.85255
73.8963	2806.422	73.53865	161.4418	2.91972
73.95025	2812.951	73.35841	156.6058	2.978239
74.0042	2819.203	73.19647	151.8208	3.028362
74.05815	2825.194	73.04604	147.0956	3.06988
74.1121	2830.94	72.90504	142.4382	3.103124
74.16605	2836.454	72.77585	137.8566	3.128294
74.22	2841.755	72.65816	133.3583	3.145459
74.27395	2846.852	72.54797	128.9503	3.15506
74.3279	2851.756	72.44376	124.6389	3.15736
74.38185	2856.474	72.34757	120.4304	3.152783
74.4358	2861.018	72.26634	116.3297	3.141616
74.48975	2865.397	72.20976	112.3417	3.124322
74.5437	2869.626	72.18578	108.4704	3.101128
74.59765	2873.727	72.19591	104.719	3.072577
74.6516	2877.716	72.23292	101.0901	3.039005
74.70555	2881.611	72.28136	97.58537	3.000709
74.7595	2885.417	72.32066	94.20618	2.958289
74.81345	2889.14	72.33188	90.95275	2.911858
74.8674	2892.779	72.30088	87.82491	2.861835
74.92135	2896.332	72.22461	84.82173	2.808532
74.9753	2899.794	72.10706	81.94173	2.752257
75.02925	2903.166	71.95462	79.18281	2.693259
75.0832	2906.452	71.77378	76.54232	2.631734
75.13715	2909.656	71.56811	74.01731	2.568113
75.1911	2912.784	71.34403	71.60419	2.502452
75.24505	2915.837	71.10871	69.29916	2.435091
75.299	2918.82	70.87293	67.09808	2.366311
75.35295	2921.735	70.64909	64.99673	2.296653
75.4069	2924.589	70.44817	62.99054	2.226396
75.46085	2927.388	70.27657	61.07494	2.156064
75.51479	2930.133	70.13583	59.24535	2.086133
75.56875	2932.815	70.02303	57.49716	2.01708
75.6227	2935.425	69.9329	55.82598	1.949263
75.67664	2937.953	69.85999	54.22738	1.883097
75.7306	2940.398	69.79946	52.69725	1.819017
75.78455	2942.757	69.74712	51.23162	1.757135
75.83849	2945.032	69.69668	49.82669	1.697738
75.89245	2947.228	69.63873	48.47891	1.64094
75.9464	2949.352	69.56261	47.185	1.586686
76.00034	2951.416	69.46302	45.94178	1.534937
76.0543	2953.432	69.34046	44.74637	1.48549
76.10825	2955.415	69.20278	43.59618	1.438076
76.16219	2957.377	69.06215	42.48874	1.392385
76.21615	2959.33	68.93142	41.42187	1.348109
76.2701	2961.288	68.81609	40.39367	1.304857
76.32404	2963.26	68.71922	39.40239	1.262428
76.37799	2965.253	68.64141	38.44647	1.220565
76.43195	2967.259	68.577	37.5246	1.179088
76.48589	2969.265	68.5153	36.63559	1.138017
76.53984	2971.262	68.45008	35.77836	1.097392
76.5938	2973.24	68.38054	34.95197	1.057351
76.64774	2975.194	68.30528	34.15549	1.018203
76.70169	2977.12	68.22298	33.38808	0.9802943
76.75565	2979.019	68.13073	32.64887	0.9439927
76.80959	2980.886	68.02159	31.93701	0.9097072
76.86354	2982.719	67.89143	31.25163	0.8778523
76.9175	2984.511	67.74065	30.59181	0.8488409
76.97144	2986.252	67.57735	29.9566	0.8230598
77.02539	2987.937	67.41507	29.34498	0.8008578
77.07935	2989.558	67.26743	28.75591	0.7825312
77.13329	2991.112	67.14727	28.18822	0.76826
77.18724	2992.592	67.0635	27.64079	0.7581306
77.24119	2993.989	67.0205	27.11243	0.7521023
77.29514	2995.298	67.01842	26.60194	0.7500237
77.34909	2996.517	67.05487	26.10813	0.7516271
77.40304	2997.65	67.12293	25.62979	0.7565435
77.45699	2998.706	67.21307	25.16579	0.7642851
77.51094	2999.688	67.31757	24.71501	0.7742944
77.56489	3000.598	67.42951	24.27639	0.7859428
77.61884	3001.441	67.5463	23.84896	0.7985771
77.67279	3002.221	67.66698	23.43185	0.8115211
77.72674	3002.949	67.79419	23.02427	0.8241396
77.78069	3003.637	67.93143	22.62555	0.8358036
77.83464	3004.296	68.07931	22.23517	0.8458826
77.88859	3004.936	68.23575	21.8527	0.8537905
77.94254	3005.569	68.39895	21.47789	0.8589543
77.99649	3006.209	68.56748	21.11061	0.8608524
78.05044	3006.869	68.74047	20.75093	0.8590053
78.10439	3007.561	68.91924	20.39904	0.8530213
78.15834	3008.291	69.10397	20.05529	0.8425281
78.21229	3009.063	69.28745	19.72017	0.8272299
78.26624	3009.879	69.46004	19.39427	0.8068852
78.32019	3010.746	69.61507	19.0783	0.7813328
78.37414	3011.666	69.74805	18.77303	0.750524
78.42809	3012.639	69.85194	18.47933	0.7144953
78.48204	3013.661	69.92121	18.19807	0.6734208
78.53599	3014.721	69.9576	17.93015	0.6275774
78.58994	3015.804	69.96483	17.67644	0.5773769
78.64389	3016.897	69.94723	17.4378	0.5233747
78.69784	3017.996	69.91251	17.21497	0.4664151
78.75179	3019.102	69.86851	17.00862	0.4077028
78.80573	3020.215	69.82163	16.81937	0.3490887
78.85969	3021.335	69.77889	16.64767	0.2936877
78.91364	3022.46	69.74471	16.49388	0.2468605
78.96758	3023.586	69.72282	16.35823	0.2172592
79.02154	3024.71	69.71093	16.24084	0.2144776
79.07549	3025.826	69.70119	16.14167	0.2407536
79.12943	3026.926	69.68351	16.06051	0.2887451
79.18339	3027.996	69.6483	15.99706	0.3495552
79.23734	3029.026	69.59039	15.95084	0.4171844
79.29128	3030.01	69.51403	15.92126	0.4881334
79.34524	3030.946	69.42911	15.90764	0.5603085
79.39919	3031.833	69.34718	15.90923	0.6323939
79.45313	3032.672	69.27957	15.92518	0.7034726
79.50708	3033.465	69.23328	15.95462	0.7729096
79.56104	3034.216	69.21274	15.99661	0.8402333
79.61498	3034.927	69.21649	16.0502	0.9050919
79.66893	3035.604	69.2409	16.1144	0.9672328
79.72289	3036.254	69.28216	16.18822	1.026476
79.77683	3036.882	69.3316	16.27065	1.082713
79.83078	3037.488	69.37762	16.36073	1.135879
79.88474	3038.072	69.40519	16.45749	1.185948
79.93868	3038.634	69.39864	16.56002	1.232954
79.99263	3039.179	69.34338	16.66747	1.276958
80.04659	3039.711	69.23108	16.77911	1.318015
80.10053	3040.239	69.0649	16.89426	1.356237
80.15448	3040.767	68.85705	17.01239	1.391756
80.20844	3041.302	68.622	17.13304	1.424664
80.26238	3041.846	68.37402	17.25587	1.455084
80.31633	3042.403	68.12838	17.38063	1.483086
80.37028	3042.974	67.89778	17.50722	1.508699
80.42423	3043.566	67.69081	17.63558	1.531928
80.47818	3044.187	67.51234	17.76574	1.552767
80.53213	3044.846	67.36402	17.89782	1.571182
80.58608	3045.548	67.24186	18.0319	1.587181
80.64003	3046.3	67.13602	18.1681	1.600766
80.69398	3047.101	67.03481	18.30648	1.611928
80.74793	3047.956	66.92146	18.44708	1.620703
80.80188	3048.862	66.78157	18.58988	1.627097
80.85583	3049.82	66.60638	18.73478	1.631138
80.90978	3050.827	66.40018	18.88161	1.632909
80.96373	3051.883	66.1748	19.03015	1.632507
81.01768	3052.988	65.94704	19.18008	1.630059
81.07162	3054.142	65.73427	19.33101	1.625718
81.12558	3055.336	65.55028	19.48245	1.619643
81.17953	3056.562	65.40031	19.63383	1.612
81.23347	3057.809	65.28825	19.78447	1.60293
81.28743	3059.072	65.21361	19.93364	1.592547
81.34138	3060.35	65.17313	20.08054	1.580899
81.39532	3061.644	65.159	20.22433	1.568016
81.44928	3062.953	65.16023	20.36415	1.553876
81.50323	3064.279	65.16578	20.49909	1.538426
81.55717	3065.618	65.16429	20.62822	1.521589
81.61113	3066.97	65.14641	20.75061	1.503253
81.66508	3068.339	65.10955	20.86534	1.483312
81.71902	3069.725	65.05306	20.97143	1.461632
81.77298	3071.124	64.97791	21.06793	1.438153
81.82693	3072.528	64.89186	21.15385	1.41282
81.88087	3073.933	64.8074	21.22823	1.385648
81.93482	3075.337	64.73734	21.29007	1.356754
81.98878	3076.739	64.68807	21.33844	1.326278
82.04272	3078.137	64.66441	21.37241	1.294463
82.09667	3079.529	64.66892	21.39105	1.261615
82.15063	3080.92	64.70153	21.39354	1.228123
82.20457	3082.314	64.75449	21.37905	1.194407
82.25852	3083.714	64.81532	21.34682	1.160984
82.31248	3085.123	64.87206	21.29617	1.128274
82.36642	3086.538	64.91652	21.2265	1.096769
82.42037	3087.953	64.94382	21.13726	1.06692
82.47433	3089.361	64.95026	21.02802	1.039038
82.52827	3090.755	64.93444	20.89845	1.013445
82.58222	3092.124	64.89916	20.74825	0.9903935
82.63618	3093.458	64.84643	20.57726	0.9700101
82.69012	3094.753	64.77976	20.38534	0.952336
82.74407	3096.008	64.70128	20.17243	0.9374076
82.79802	3097.226	64.61461	19.93858	0.9250882
82.85197	3098.411	64.52424	19.68384	0.9152469
82.90592	3099.563	64.4358	19.4083	0.9077972
82.95987	3100.69	64.35053	19.11209	0.90261
83.01382	3101.802	64.26665	18.79531	0.89966
83.06777	3102.911	64.17969	18.45806	0.8989674
83.12172	3104.019	64.08385	18.1004	0.900672
83.17567	3105.125	63.97319	17.72236	0.9049876
83.22962	3106.214	63.84492	17.32399	0.9122478
83.28357	3107.278	63.6996	16.90529	0.9228567
83.33752	3108.311	63.54444	16.46631	0.9372651
83.39147	3109.309	63.38948	16.00711	0.9559365
83.44542	3110.269	63.24529	15.52773	0.9792742
83.49937	3111.192	63.12146	15.02829	1.007618
83.55332	3112.078	63.02765	14.50889	1.041147
83.60727	3112.936	62.97258	13.96969	1.079887
83.66122	3113.77	62.96122	13.41084	1.123678
83.71517	3114.588	62.98729	12.83256	1.172242
83.76912	3115.39	63.04154	12.23503	1.225145
83.82307	3116.184	63.11391	11.61845	1.281884
83.87702	3116.971	63.19814	10.98298	1.341907
83.93097	3117.754	63.28842	10.32883	1.404644
83.98492	3118.525	63.37949	9.656198	1.469536
84.03887	3119.274	63.46514	8.965307	1.536036
84.09282	3119.99	63.54197	8.256423	1.603675
84.14677	3120.667	63.60912	7.529788	1.672059
84.20072	3121.296	63.66647	6.785708	1.740818
84.25467	3121.874	63.71523	6.024508	1.809673
84.30862	3122.388	63.76057	5.246517	1.878431
84.36256	3122.836	63.80865	4.45215	1.946926
84.41652	3123.217	63.85975	3.641803	2.01505
84.47047	3123.545	63.90816	2.815927	2.082821
84.52441	3123.83	63.9497	1.975025	2.150218
84.57837	3124.078	63.97873	1.119659	2.217319
84.63232	3124.296	63.98684	0.2504143	2.284244
84.68626	3124.487	63.96422	-0.6319659	2.351158
84.74022	3124.653	63.90142	-1.526687	2.418246
84.79417	3124.792	63.79255	-2.43288	2.485709
84.84811	3124.894	63.6375	-3.349534	2.553759
84.90207	3124.946	63.43904	-4.275578	2.6226
84.95602	3124.933	63.20422	-5.209887	2.69244
85.00996	3124.853	62.94226	-6.151266	2.763387
85.06391	3124.707	62.66368	-7.098493	2.83556
85.11787	3124.498	62.37853	-8.050331	2.908991
85.17181	3124.223	62.09345	-9.00554	2.983647
85.22576	3123.879	61.81205	-9.962871	3.059436
85.27972	3123.469	61.53436	-10.92109	3.136205
85.33366	3122.994	61.2595	-11.87897	3.213756
85.38761	3122.454	60.98265	-12.8353	3.291832
85.44157	3121.849	60.69736	-13.78888	3.370158
85.49551	3121.18	60.39927	-14.73851	3.448398
85.54946	3120.441	60.08884	-15.68302	3.526181
85.60342	3119.627	59.76859	-16.62123	3.603101
85.65736	3118.729	59.44149	-17.55197	3.678729
85.71131	3117.739	59.11137	-18.47404	3.75262
85.76527	3116.656	58.78013	-19.38626	3.824334
85.81921	3115.484	58.45048	-20.28748	3.893435
85.87316	3114.229	58.13211	-21.17659	3.959523
85.92711	3112.901	57.83278	-22.0526	4.022221
85.98106	3111.506	57.55718	-22.91452	4.0812
86.03501	3110.047	57.30505	-23.7615	4.13613
86.08896	3108.521	57.07376	-24.59274	4.186732
86.14291	3106.933	56.85637	-25.40754	4.232805
86.19686	3105.282	56.64651	-26.20528	4.27409
86.25081	3103.571	56.43758	-26.98549	4.310464
86.30476	3101.793	56.22806	-27.74775	4.341791
86.35871	3099.944	56.01732	-28.4917	4.367985
86.41266	3098.013	55.8035	-29.21717	4.389058
86.46661	3096	55.58531	-29.92399	4.405074
86.52056	3093.909	55.36588	-30.61209	4.416091
86.57451	3091.75	55.14717	-31.28151	4.422307
86.62846	3089.53	54.93368	-31.93236	4.423932
86.68241	3087.262	54.72615	-32.56483	4.421166
86.73636	3084.955	54.52538	-33.17919	4.414388
86.79031	3082.625	54.32926	-33.7758	4.403911
86.84426	3080.279	54.13756	-34.35502	4.390077
86.89821	3077.925	53.9479	-34.91729	4.373353
86.95216	3075.564	53.75586	-35.46307	4.354161
87.00611	3073.201	53.55766	-35.99282	4.332867
87.06006	3070.833	53.35373	-36.50705	4.309889
87.11401	3068.461	53.1403	-37.00626	4.285621
87.16796	3066.079	52.91443	-37.49095	4.26029
87.22191	3063.69	52.67222	-37.96169	4.234204
87.27586	3061.291	52.41478	-38.41903	4.207561
87.32981	3058.889	52.14537	-38.86356	4.180568
87.38376	3056.486	51.87008	-39.29589	4.153368
87.43771	3054.092	51.59393	-39.71666	4.126112
87.49165	3051.715	51.32412	-40.12648	4.098916
87.54561	3049.364	51.06644	-40.526	4.07186
87.59956	3047.043	50.82351	-40.91587	4.044966
87.6535	3044.755	50.59751	-41.29671	4.018199
87.70746	3042.498	50.38646	-41.66911	3.9915
87.76141	3040.269	50.18627	-42.03361	3.964752
87.81535	3038.06	49.99301	-42.39075	3.937851
87.86931	3035.865	49.79988	-42.74102	3.910693
87.92326	3033.676	49.60254	-43.0849	3.883202
87.9772	3031.491	49.39965	-43.42286	3.855347
88.03116	3029.31	49.19376	-43.7553	3.827125
88.08511	3027.135	48.98858	-44.08261	3.798588
88.13905	3024.969	48.78982	-44.40515	3.769829
88.19301	3022.813	48.60326	-44.72326	3.740974
88.24696	3020.674	48.43343	-45.03731	3.712196
88.3009	3018.552	48.28561	-45.34764	3.68365
88.35485	3016.445	48.1604	-45.65461	3.655539
88.40881	3014.341	48.05312	-45.95853	3.628088
88.46275	3012.226	47.95636	-46.25973	3.601492
88.5167	3010.087	47.86139	-46.55845	3.575974
88.57066	3007.912	47.76123	-46.85496	3.551763
88.6246	3005.692	47.6514	-47.14945	3.529063
88.67855	3003.425	47.52682	-47.44215	3.508081
88.73251	3001.106	47.3818	-47.73322	3.489079
88.78645	2998.734	47.21643	-48.02282	3.472275
88.8404	2996.311	47.03612	-48.31104	3.457933
88.89436	2993.846	46.84281	-48.59795	3.446344
88.9483	2991.351	46.63848	-48.88357	3.437756
89.00225	2988.832	46.42757	-49.16789	3.432406
89.0562	2986.292	46.21981	-49.45087	3.430486
89.11015	2983.729	46.02254	-49.73247	3.432113
89.1641	2981.135	45.84118	-50.01256	3.437354
89.21805	2978.496	45.67826	-50.29101	3.446207
89.272	2975.798	45.53286	-50.5676	3.458598
89.32595	2973.031	45.39859	-50.84209	3.474423
89.3799	2970.188	45.26686	-51.11418	3.49354
89.43385	2967.269	45.1305	-51.3835	3.515796
89.4878	2964.278	44.9841	-51.64964	3.540988
89.54175	2961.226	44.82462	-51.91217	3.568889
89.5957	2958.119	44.65697	-52.17063	3.599241
89.64965	2954.968	44.49053	-52.42453	3.631764
89.7036	2951.782	44.3339	-52.67343	3.666116
89.75755	2948.572	44.19609	-52.91684	3.701973
89.8115	2945.348	44.08444	-53.15432	3.739014
89.86545	2942.12	43.99804	-53.38545	3.776925
89.9194	2938.89	43.92916	-53.60978	3.815421
89.97335	2935.664	43.86595	-53.82689	3.854219
90.0273	2932.441	43.79499	-54.03635	3.893113
90.08125	2929.222	43.7041	-54.23775	3.931855
90.1352	2925.996	43.58751	-54.4307	3.970269
90.18915	2922.756	43.44538	-54.61486	4.008204
90.2431	2919.497	43.28018	-54.78995	4.045548
90.29705	2916.226	43.09306	-54.95573	4.08219
90.351	2912.945	42.88928	-55.11206	4.118088
90.40495	2909.667	42.67331	-55.25884	4.153224
90.4589	2906.393	42.4466	-55.39609	4.187532
90.51285	2903.132	42.2072	-55.52388	4.221032
90.5668	2899.893	41.95371	-55.64236	4.253741
90.62074	2896.692	41.68453	-55.75174	4.285674
90.6747	2893.534	41.39769	-55.8523	4.316883
90.72865	2890.421	41.09143	-55.94442	4.347404
90.78259	2887.34	40.76799	-56.02846	4.377256
90.83655	2884.285	40.42797	-56.10487	4.406435
90.8905	2881.245	40.07425	-56.1741	4.434911
90.94444	2878.218	39.71034	-56.23661	4.462601
90.9984	2875.196	39.34362	-56.29292	4.489404
91.05235	2872.179	38.97934	-56.34354	4.515166
91.10629	2869.17	38.61821	-56.38908	4.5397
91.16025	2866.171	38.25994	-56.43013	4.562787
91.2142	2863.179	37.90621	-56.4673	4.584178
91.26814	2860.194	37.56037	-56.50121	4.603614
91.3221	2857.212	37.22488	-56.53245	4.620815
91.37605	2854.233	36.90017	-56.56167	4.635499
91.42999	2851.258	36.58348	-56.58947	4.647383
91.48394	2848.29	36.26709	-56.61645	4.656168
91.5379	2845.33	35.94677	-56.64317	4.661576
91.59184	2842.382	35.62297	-56.67011	4.663335
91.64579	2839.448	35.29607	-56.69773	4.661218
91.69975	2836.528	34.96701	-56.72642	4.655006
91.75369	2833.625	34.6432	-56.75653	4.6445
91.80764	2830.74	34.33478	-56.78836	4.62957
91.8616	2827.869	34.05092	-56.82219	4.610098
91.91554	2825.006	33.79797	-56.85823	4.586021
91.96949	2822.146	33.57624	-56.89672	4.557293
92.02345	2819.288	33.37762	-56.93783	4.523963
92.07739	2816.43	33.19421	-56.98172	4.486095
92.13134	2813.569	33.02285	-57.02853	4.443793
92.1853	2810.705	32.8617	-57.07832	4.397235
92.23924	2807.835	32.70585	-57.13116	4.346601
92.29319	2804.956	32.54993	-57.18707	4.292114
92.34714	2802.063	32.39034	-57.24604	4.233988
92.40109	2799.15	32.22394	-57.30812	4.172337
92.45504	2796.211	32.05024	-57.40688	4.083754
92.50899	2793.244	31.86975	-57.50035	3.996168
92.56294	2790.249	31.68691	-57.58966	3.909919
92.61689	2787.227	31.50777	-57.67606	3.825075
92.67084	2784.178	31.34053	-57.76061	3.741554
92.72479	2781.1	31.18879	-57.84416	3.659199
92.77874	2777.985	31.05115	-57.92733	3.577843
92.83269	2774.831	30.92054	-58.01055	3.497319
92.88664	2771.636	30.78846	-58.09415	3.417494
92.94059	2768.405	30.64681	-58.17833	3.338258
92.99454	2765.139	30.49468	-58.26325	3.259527
93.04848	2761.844	30.32755	-58.349	3.181246
93.10244	2758.525	30.14152	-58.43562	3.103384
93.15639	2755.191	29.93446	-58.52316	3.025927
93.21033	2751.846	29.70828	-58.61161	2.948885
93.26429	2748.492	29.46581	-58.70098	2.872285
93.31824	2745.13	29.21541	-58.79123	2.796172
93.37218	2741.763	28.9667	-58.88234	2.720612
93.42614	2738.399	28.72895	-58.97426	2.645688
93.48009	2735.047	28.50947	-59.06694	2.571511
93.53403	2731.709	28.31246	-59.16033	2.498202
93.58799	2728.38	28.14335	-59.25437	2.425916
93.64194	2725.057	28.00515	-59.349	2.354828
93.69588	2721.736	27.89762	-59.44415	2.285144
93.74984	2718.411	27.81697	-59.53975	2.217093
93.80379	2715.09	27.75741	-59.63573	2.150941
93.85773	2711.776	27.71321	-59.73201	2.08698
93.91168	2708.47	27.68096	-59.82852	2.025542
93.96564	2705.17	27.65531	-59.92519	1.966987
94.01958	2701.875	27.63107	-60.02195	1.911706
94.07353	2698.606	27.61244	-60.11873	1.860124
94.12749	2695.402	27.55255	-60.21545	1.812691
94.18143	2692.242	27.46977	-60.31206	1.769865
94.23538	2689.104	27.37741	-60.40849	1.732123
94.28934	2685.979	27.28174	-60.50469	1.699927
94.34328	2682.861	27.18573	-60.60061	1.67372
94.39723	2679.746	27.09048	-60.69619	1.653904
94.45119	2676.633	26.99617	-60.79139	1.640822
94.50513	2673.518	26.90345	-60.88618	1.634735
94.55908	2670.403	26.81176	-60.98051	1.635821
94.61303	2667.288	26.72029	-61.07436	1.644154
94.66698	2664.172	26.62864	-61.16769	1.6597
94.72093	2661.057	26.53567	-61.26049	1.682332
94.77488	2657.944	26.44102	-61.35273	1.711829
94.82883	2654.833	26.3438	-61.4444	1.7479
94.88278	2651.725	26.24337	-61.53549	1.790195
94.93673	2648.622	26.13862	-61.62599	1.838325
94.99068	2645.526	26.02885	-61.7159	1.891875
