T[Â°C]	330nm [counts / mm]	S.D.	First derivative	S.D. of first derivative
20.00049	4994.389	37.82923	-72.46619	4.497146
20.0546	4990.3	37.70131	-72.38055	4.424632
20.1087	4986.215	37.57791	-72.29491	4.35233
20.16281	4982.134	37.45858	-72.20933	4.280251
20.21692	4978.057	37.34304	-72.12378	4.208415
20.27102	4973.983	37.23074	-72.03827	4.136829
20.32513	4969.915	37.12173	-71.95281	4.065516
20.37924	4965.851	37.01509	-71.86742	3.994484
20.43335	4961.792	36.90948	-71.7821	3.923754
20.48745	4957.738	36.8036	-71.69685	3.853344
20.54156	4953.689	36.69587	-71.61169	3.783266
20.59567	4949.646	36.58526	-71.52663	3.713536
20.64977	4945.608	36.47019	-71.44167	3.644175
20.70388	4941.576	36.34993	-71.3568	3.5752
20.75799	4937.548	36.22451	-71.27206	3.506613
20.8121	4933.523	36.09525	-71.18742	3.438439
20.8662	4929.5	35.96781	-71.10291	3.37069
20.92031	4925.482	35.85662	-71.01852	3.30337
20.97442	4921.598	35.72433	-70.93425	3.236503
21.02852	4917.742	35.58481	-70.85011	3.170085
21.08263	4913.909	35.43187	-70.76607	3.104124
21.13674	4910.096	35.26553	-70.68215	3.03863
21.19084	4906.306	35.08942	-70.59834	2.973604
21.24495	4902.539	34.90345	-70.51462	2.909046
21.29906	4898.79	34.70907	-70.43098	2.844955
21.35316	4895.056	34.51067	-70.34743	2.781328
21.40727	4891.339	34.30652	-70.26395	2.718167
21.46138	4887.641	34.09674	-70.18053	2.655468
21.51549	4883.967	33.87743	-70.09717	2.59323
21.56959	4880.315	33.65096	-70.01384	2.531443
21.6237	4876.678	33.42409	-69.93056	2.470105
21.67781	4873.041	33.20123	-69.8473	2.409218
21.73191	4869.39	32.99171	-69.76408	2.34876
21.78602	4865.71	32.80653	-69.68089	2.288725
21.84013	4861.996	32.65678	-69.59774	2.22909
21.89424	4858.254	32.54415	-69.51463	2.169834
21.94834	4854.492	32.46901	-69.43156	2.110917
22.00245	4850.717	32.42688	-69.34855	2.052298
22.05656	4846.928	32.40746	-69.26562	1.993915
22.11066	4843.12	32.40376	-69.18276	1.935707
22.16477	4839.289	32.41307	-69.10001	1.877582
22.21888	4835.432	32.43521	-69.01736	1.819442
22.27298	4831.556	32.47132	-68.93484	1.761185
22.32709	4827.669	32.52093	-68.85246	1.702709
22.3812	4823.784	32.57934	-68.77024	1.643926
22.4353	4819.913	32.63638	-68.68827	1.584794
22.48941	4816.067	32.68679	-68.6067	1.525379
22.54352	4812.259	32.7295	-68.52583	1.465882
22.59763	4808.493	32.76611	-68.44607	1.406657
22.65173	4804.766	32.79669	-68.38829	1.367311
22.70584	4801.068	32.81699	-68.33305	1.329141
22.75995	4797.397	32.82397	-68.28016	1.292278
22.81405	4793.752	32.81954	-68.22943	1.256891
22.86816	4790.128	32.81036	-68.18064	1.223173
22.92227	4786.517	32.7972	-68.13354	1.191323
22.97638	4782.909	32.77441	-68.08784	1.161547
23.03048	4779.301	32.73518	-68.04324	1.134017
23.08459	4775.691	32.67528	-67.99945	1.108864
23.1387	4772.086	32.59493	-67.95617	1.086187
23.1928	4768.497	32.49916	-67.91313	1.06605
23.24691	4764.931	32.39293	-67.87007	1.0485
23.30102	4761.395	32.28105	-67.82679	1.033562
23.35512	4757.892	32.16675	-67.78307	1.021248
23.40923	4754.414	32.0552	-67.73876	1.011561
23.46334	4750.953	31.94937	-67.69377	1.004496
23.51744	4747.502	31.85358	-67.64805	0.9999985
23.57155	4744.049	31.77597	-67.60159	0.9980095
23.62566	4740.583	31.7198	-67.55442	0.9983995
23.67977	4737.089	31.68264	-67.50665	1.001003
23.73387	4733.556	31.65806	-67.45842	1.005592
23.78798	4729.973	31.6305	-67.40991	1.011925
23.84209	4726.335	31.58072	-67.36134	1.019732
23.89619	4722.645	31.49732	-67.31296	1.028732
23.9503	4718.913	31.38109	-67.26503	1.038636
24.00441	4715.153	31.23811	-67.21786	1.049115
24.05852	4711.377	31.07841	-67.17173	1.059848
24.11262	4707.6	30.91531	-67.12695	1.070504
24.16673	4703.833	30.76247	-67.08377	1.080752
24.22084	4700.085	30.63519	-67.04242	1.09029
24.27494	4696.358	30.55126	-67.00303	1.098807
24.32905	4692.649	30.52054	-66.96571	1.106024
24.38316	4688.954	30.53831	-66.93049	1.111682
24.43726	4685.264	30.59395	-66.89735	1.115532
24.49137	4681.576	30.67176	-66.86626	1.117326
24.54548	4677.884	30.75205	-66.83707	1.116844
24.59958	4674.183	30.81608	-66.80965	1.113905
24.65369	4670.475	30.84662	-66.78375	1.108364
24.7078	4666.758	30.83159	-66.75915	1.100107
24.76191	4663.037	30.7712	-66.7356	1.08908
24.81601	4659.321	30.67678	-66.71284	1.075228
24.87012	4655.628	30.56524	-66.69064	1.058545
24.92423	4651.975	30.45109	-66.66868	1.039046
24.97833	4648.369	30.34332	-66.64674	1.0168
25.03244	4644.808	30.24836	-66.62453	0.9919041
25.08655	4641.286	30.16845	-66.60186	0.9645139
25.14066	4637.793	30.10191	-66.57847	0.9347991
25.19476	4634.316	30.0484	-66.55418	0.9029616
25.24887	4630.839	30.00735	-66.52881	0.8692288
25.30298	4627.345	29.97122	-66.50219	0.833872
25.35708	4623.824	29.92939	-66.47421	0.7972345
25.41119	4620.279	29.86762	-66.44476	0.7597331
25.4653	4616.721	29.77286	-66.41373	0.7218798
25.5194	4613.163	29.6341	-66.38106	0.684238
25.57351	4609.614	29.45062	-66.34667	0.6474434
25.62762	4606.071	29.23127	-66.31052	0.6122183
25.68172	4602.528	28.99629	-66.27261	0.5793813
25.73583	4598.98	28.77255	-66.23297	0.5498829
25.78994	4595.426	28.58361	-66.19171	0.5247121
25.84405	4591.861	28.44817	-66.14896	0.5048317
25.89815	4588.285	28.37673	-66.10489	0.4910007
25.95226	4584.696	28.36477	-66.05968	0.4836771
26.00637	4581.093	28.39822	-66.01353	0.4829143
26.06047	4577.479	28.46122	-65.96661	0.4883533
26.11458	4573.855	28.53901	-65.91905	0.4992797
26.16869	4570.225	28.62013	-65.87096	0.5147429
26.2228	4566.592	28.69803	-65.82233	0.5337024
26.2769	4562.96	28.77048	-65.77319	0.5551187
26.33101	4559.331	28.83303	-65.72352	0.5780349
26.38512	4555.709	28.88449	-65.67329	0.601617
26.43922	4552.1	28.93289	-65.6225	0.6251707
26.49333	4548.508	28.98567	-65.57109	0.6481715
26.54744	4544.938	29.04687	-65.51904	0.6702463
26.60155	4541.394	29.11843	-65.46629	0.6911615
26.65565	4537.881	29.20024	-65.41275	0.7108215
26.70976	4534.398	29.28601	-65.35835	0.7292336
26.76386	4530.939	29.36831	-65.30301	0.746486
26.81797	4527.497	29.43852	-65.24668	0.7627105
26.87208	4524.061	29.48848	-65.1894	0.7780717
26.92619	4520.621	29.51674	-65.13121	0.7927034
26.98029	4517.168	29.5294	-65.07224	0.8067404
27.0344	4513.696	29.53722	-65.0126	0.8202711
27.08851	4510.204	29.54512	-64.95248	0.8333814
27.14261	4506.695	29.55315	-64.89207	0.8461017
27.19672	4503.181	29.55969	-64.83156	0.8584194
27.25083	4499.667	29.56144	-64.77116	0.8702605
27.30494	4496.151	29.55878	-64.71105	0.8814899
27.35904	4492.627	29.55516	-64.65141	0.891897
27.41315	4489.091	29.55295	-64.5924	0.9011926
27.46726	4485.54	29.55065	-64.53417	0.9090481
27.52136	4481.973	29.54737	-64.47684	0.9151017
27.57547	4478.396	29.54494	-64.42048	0.9190093
27.62958	4474.813	29.54289	-64.36518	0.9204428
27.68369	4471.229	29.54085	-64.311	0.9191015
27.73779	4467.648	29.53787	-64.25802	0.9147087
27.7919	4464.068	29.53614	-64.20628	0.9070231
27.84601	4460.497	29.54258	-64.15584	0.895867
27.90011	4456.934	29.56	-64.10674	0.8811417
27.95422	4453.379	29.58403	-64.05901	0.8628452
28.00833	4449.832	29.60431	-64.0127	0.8410925
28.06243	4446.296	29.61083	-63.96784	0.8160848
28.11654	4442.777	29.59629	-63.92444	0.7881438
28.17065	4439.287	29.55851	-63.88249	0.7576589
28.22475	4435.829	29.49558	-63.84193	0.7250794
28.27886	4432.406	29.40207	-63.8027	0.690886
28.33297	4429.016	29.26861	-63.76468	0.6555911
28.38708	4425.657	29.09846	-63.72774	0.6197588
28.44118	4422.328	28.89962	-63.69171	0.5839743
28.49529	4419.026	28.68211	-63.65639	0.5488961
28.5494	4415.746	28.45965	-63.62155	0.5152267
28.6035	4412.475	28.24993	-63.58697	0.4837593
28.65761	4409.204	28.06513	-63.5524	0.4553756
28.71172	4405.928	27.91297	-63.51766	0.4310296
28.76583	4402.647	27.7958	-63.48257	0.4116623
28.81993	4399.358	27.70862	-63.44701	0.3980316
28.87404	4396.061	27.63709	-63.41088	0.3905684
28.92815	4392.752	27.57252	-63.37415	0.3892465
28.98225	4389.434	27.51344	-63.33677	0.3935505
29.03636	4386.104	27.46378	-63.29878	0.402593
29.09047	4382.76	27.42417	-63.26024	0.4152544
29.14457	4379.397	27.39683	-63.22126	0.4303487
29.19868	4376.016	27.3831	-63.18198	0.446751
29.25279	4372.618	27.38144	-63.14259	0.4634975
29.30689	4369.202	27.39147	-63.10327	0.4798131
29.361	4365.765	27.41849	-63.06424	0.4951185
29.41511	4362.31	27.47268	-63.0257	0.5090275
29.46922	4358.838	27.56064	-62.98781	0.521312
29.52332	4355.355	27.68376	-62.95069	0.5318897
29.57743	4351.866	27.83711	-62.91443	0.5408101
29.63154	4348.373	28.01188	-62.87909	0.5482065
29.68564	4344.877	28.19468	-62.8447	0.5542579
29.73975	4341.376	28.37313	-62.81123	0.5591765
29.79386	4337.876	28.53754	-62.77867	0.563179
29.84797	4334.381	28.67609	-62.74695	0.5664635
29.90207	4330.898	28.77897	-62.71603	0.5691746
29.95618	4327.428	28.83923	-62.68583	0.5713959
30.01029	4323.972	28.85143	-62.65633	0.5731546
30.06439	4320.529	28.81833	-62.62748	0.5744475
30.1185	4317.104	28.75176	-62.59924	0.5752433
30.17261	4313.691	28.66892	-62.57156	0.5755206
30.22671	4310.29	28.58433	-62.54435	0.5752699
30.28082	4306.896	28.51064	-62.51753	0.5745055
30.33493	4303.511	28.45473	-62.49099	0.5732554
30.38903	4300.132	28.42063	-62.4646	0.5715725
30.44314	4296.755	28.40541	-62.43821	0.5695331
30.49725	4293.376	28.40255	-62.41164	0.5672498
30.55136	4289.993	28.40487	-62.3847	0.5648773
30.60546	4286.602	28.40493	-62.35717	0.5626168
30.65957	4283.207	28.39428	-62.3289	0.5607198
30.71368	4279.809	28.36688	-62.29969	0.5594884
30.76778	4276.413	28.32117	-62.2694	0.5592507
30.82189	4273.025	28.25649	-62.23787	0.5603157
30.876	4269.65	28.17081	-62.20495	0.5629293
30.93011	4266.285	28.06423	-62.17055	0.5672931
30.98421	4262.929	27.94291	-62.13458	0.5735424
31.03832	4259.581	27.81309	-62.09704	0.581754
31.09243	4256.239	27.68244	-62.05794	0.5919217
31.14653	4252.9	27.56289	-62.01735	0.6039489
31.20064	4249.563	27.46301	-61.97539	0.6176735
31.25475	4246.229	27.3812	-61.93222	0.6328573
31.30885	4242.894	27.31178	-61.88804	0.6491778
31.36296	4239.55	27.25287	-61.84306	0.6662372
31.41707	4236.198	27.20596	-61.7975	0.6835712
31.47117	4232.839	27.17288	-61.75154	0.7006887
31.52528	4229.48	27.15035	-61.70541	0.7170776
31.57939	4226.129	27.12787	-61.65931	0.732248
31.6335	4222.79	27.09288	-61.61343	0.7456973
31.6876	4219.469	27.03783	-61.568	0.7569528
31.74171	4216.166	26.96394	-61.5232	0.7655785
31.79582	4212.881	26.87589	-61.47919	0.7711965
31.84992	4209.613	26.78043	-61.43611	0.7734895
31.90403	4206.36	26.68658	-61.39403	0.7722222
31.95814	4203.122	26.6029	-61.35302	0.7672505
32.01225	4199.896	26.5377	-61.3131	0.7585331
32.06635	4196.676	26.49123	-61.2743	0.74613
32.12046	4193.454	26.4598	-61.23661	0.730177
32.17456	4190.222	26.43949	-61.20003	0.7108582
32.22867	4186.973	26.42873	-61.16453	0.6884068
32.28278	4183.702	26.42026	-61.1301	0.6630521
32.33689	4180.409	26.40842	-61.09674	0.6350473
32.391	4177.097	26.39135	-61.06447	0.6046484
32.4451	4173.771	26.37613	-61.03329	0.5721017
32.49921	4170.437	26.36649	-61.00325	0.5376577
32.55331	4167.1	26.35985	-60.97435	0.5015586
32.60742	4163.765	26.34878	-60.94666	0.4640909
32.66153	4160.437	26.32778	-60.92019	0.4255648
32.71564	4157.113	26.29362	-60.89499	0.3863501
32.76974	4153.796	26.2483	-60.87105	0.3468696
32.82385	4150.486	26.19621	-60.84833	0.3076264
32.87796	4147.178	26.14046	-60.82679	0.2692332
32.93206	4143.869	26.08881	-60.80634	0.2324304
32.98617	4140.558	26.04319	-60.78689	0.1981401
33.04028	4137.251	26.00817	-60.76834	0.1675168
33.09438	4133.95	25.98658	-60.7506	0.1419995
33.14849	4130.653	25.98129	-60.73351	0.1232469
33.2026	4127.357	25.98507	-60.71698	0.112645
33.25671	4124.062	25.98839	-60.70089	0.1103359
33.31081	4120.766	25.9839	-60.6851	0.1147277
33.36492	4117.471	25.9651	-60.66953	0.1233389
33.41903	4114.18	25.92859	-60.65409	0.1339785
33.47313	4110.897	25.8739	-60.63868	0.1452179
33.52724	4107.626	25.80515	-60.62321	0.1562904
33.58135	4104.37	25.73043	-60.6076	0.1668467
33.63546	4101.127	25.6607	-60.59179	0.1767591
33.68956	4097.898	25.60558	-60.57571	0.1859922
33.74367	4094.681	25.56643	-60.5593	0.194518
33.79778	4091.467	25.54272	-60.54247	0.2022765
33.85188	4088.248	25.53119	-60.52514	0.2091784
33.90599	4085.015	25.53362	-60.5072	0.2151041
33.9601	4081.767	25.55949	-60.48856	0.219939
34.0142	4078.502	25.61843	-60.46911	0.2236004
34.06831	4075.219	25.71865	-60.44873	0.2260645
34.12242	4071.919	25.86327	-60.42729	0.2273869
34.17653	4068.605	26.05069	-60.40467	0.2277114
34.23063	4065.28	26.26978	-60.38076	0.2272645
34.28474	4061.949	26.5001	-60.3555	0.2263589
34.33884	4058.622	26.71915	-60.32883	0.2253432
34.39295	4055.306	26.91056	-60.30079	0.2245701
34.44706	4052.004	27.06922	-60.27142	0.2243353
34.50117	4048.715	27.19815	-60.24079	0.2248435
34.55527	4045.437	27.30026	-60.20901	0.2261671
34.60938	4042.172	27.37703	-60.17618	0.2282566
34.66349	4038.924	27.43008	-60.1424	0.2309394
34.71759	4035.689	27.46678	-60.10774	0.2339624
34.7717	4032.465	27.49628	-60.07228	0.2370423
34.82581	4029.241	27.52703	-60.03605	0.2398856
34.87992	4026.009	27.5612	-59.99909	0.242231
34.93402	4022.764	27.59171	-59.9614	0.2438633
34.98813	4019.506	27.61319	-59.92299	0.2446247
35.04224	4016.242	27.61799	-59.88385	0.2444013
35.09634	4012.975	27.59806	-59.84398	0.2431252
35.15045	4009.708	27.54025	-59.80338	0.2407731
35.20456	4006.446	27.43416	-59.76204	0.2374142
35.25866	4003.193	27.27839	-59.71999	0.2332723
35.31277	3999.953	27.07679	-59.67723	0.2287581
35.36688	3996.729	26.83792	-59.63382	0.2245332
35.42099	3993.518	26.57288	-59.58978	0.2215158
35.47509	3990.313	26.29039	-59.54516	0.220871
35.5292	3987.106	26.00069	-59.5	0.2238745
35.58331	3983.885	25.71903	-59.45435	0.2316696
35.63741	3980.645	25.46525	-59.40828	0.244977
35.69152	3977.386	25.25564	-59.36183	0.2639481
35.74563	3974.114	25.09956	-59.31508	0.2881745
35.79974	3970.833	24.99187	-59.26809	0.3168876
35.85384	3967.547	24.92249	-59.22093	0.3491465
35.90795	3964.265	24.87919	-59.17369	0.3839789
35.96206	3960.998	24.85051	-59.12642	0.4204086
36.01616	3957.756	24.82673	-59.07917	0.4574911
36.07027	3954.55	24.80092	-59.03198	0.494329
36.12438	3951.381	24.77183	-58.98487	0.5301002
36.17848	3948.241	24.74453	-58.93789	0.5640787
36.23259	3945.12	24.7298	-58.89105	0.5956353
36.2867	3942.009	24.73606	-58.84441	0.6242696
36.34081	3938.901	24.76518	-58.798	0.6495996
36.39491	3935.786	24.81206	-58.75185	0.6713764
36.44902	3932.661	24.87505	-58.70597	0.6894685
36.50312	3929.524	24.95594	-58.6604	0.7038603
36.55723	3926.377	25.05721	-58.61512	0.7146319
36.61134	3923.224	25.17705	-58.57011	0.7219735
36.66545	3920.069	25.30519	-58.52531	0.7261335
36.71955	3916.913	25.4336	-58.48065	0.7274262
36.77366	3913.757	25.56034	-58.43604	0.7261796
36.82777	3910.6	25.67955	-58.39141	0.7227449
36.88187	3907.442	25.77901	-58.34665	0.7174639
36.93598	3904.283	25.85022	-58.30167	0.7107002
36.99009	3901.127	25.89112	-58.25641	0.7028026
37.0442	3897.977	25.90565	-58.21075	0.6941379
37.0983	3894.835	25.90326	-58.16463	0.6850658
37.15241	3891.698	25.88784	-58.11799	0.6759349
37.20652	3888.563	25.86162	-58.07075	0.6670702
37.26062	3885.427	25.82782	-58.02286	0.6587755
37.31473	3882.291	25.79095	-57.97425	0.6513329
37.36884	3879.159	25.76106	-57.92486	0.6449941
37.42294	3876.036	25.74767	-57.87463	0.6399618
37.47705	3872.927	25.75484	-57.82351	0.6363716
37.53116	3869.834	25.78121	-57.77145	0.6342825
37.58527	3866.755	25.82074	-57.71841	0.6336783
37.63937	3863.682	25.8657	-57.66438	0.6344606
37.69348	3860.611	25.91232	-57.60931	0.6364436
37.74759	3857.54	25.95711	-57.55321	0.6393871
37.80169	3854.464	25.99746	-57.49612	0.6430085
37.8558	3851.377	26.03286	-57.43813	0.6470118
37.90991	3848.275	26.06333	-57.37933	0.6510814
37.96402	3845.153	26.08651	-57.31986	0.654898
38.01812	3842.014	26.09949	-57.25982	0.6581627
38.07223	3838.866	26.09834	-57.19932	0.6606337
38.12634	3835.715	26.08179	-57.1385	0.6621335
38.18044	3832.567	26.05551	-57.07743	0.6625694
38.23455	3829.427	26.02495	-57.01623	0.6619043
38.28866	3826.292	25.98692	-56.95496	0.660167
38.34276	3823.158	25.93204	-56.8937	0.6574312
38.39687	3820.02	25.84493	-56.83253	0.653796
38.45098	3816.873	25.71081	-56.77153	0.6493962
38.50508	3813.719	25.52633	-56.7108	0.6443722
38.55919	3810.565	25.2944	-56.65044	0.6388553
38.6133	3807.416	25.01795	-56.5906	0.6329356
38.6674	3804.278	24.70217	-56.53139	0.6266336
38.72151	3801.154	24.35967	-56.47297	0.6199174
38.77562	3798.049	24.00958	-56.41548	0.6126893
38.82973	3794.964	23.67309	-56.35907	0.6047932
38.88383	3791.899	23.36749	-56.30389	0.5960314
38.93794	3788.849	23.10317	-56.2501	0.5861733
38.99205	3785.809	22.88533	-56.1978	0.5749916
39.04615	3782.777	22.71944	-56.14713	0.56228
39.10026	3779.755	22.60855	-56.09819	0.547854
39.15437	3776.747	22.55019	-56.0511	0.5316045
39.20848	3773.755	22.53536	-56.00591	0.5134664
39.26258	3770.78	22.5505	-55.96266	0.4934719
39.31669	3767.816	22.58207	-55.92134	0.4717149
39.3708	3764.858	22.61962	-55.88192	0.4483544
39.4249	3761.901	22.65459	-55.84431	0.4236046
39.47901	3758.941	22.68304	-55.80845	0.3977241
39.53312	3755.978	22.70804	-55.77425	0.3710721
39.58722	3753.011	22.73181	-55.74162	0.3441098
39.64133	3750.04	22.76193	-55.71051	0.3174642
39.69544	3747.064	22.80823	-55.68085	0.2919752
39.74955	3744.09	22.87661	-55.6526	0.268742
39.80365	3741.12	22.96765	-55.62576	0.2491589
39.85776	3738.159	23.07914	-55.60028	0.2347812
39.91187	3735.206	23.20655	-55.57614	0.2270525
39.96597	3732.262	23.34701	-55.55327	0.2268143
40.02008	3729.33	23.49676	-55.53157	0.2339101
40.07419	3726.412	23.64777	-55.51094	0.2471903
40.1283	3723.51	23.79375	-55.49125	0.2649187
40.1824	3720.623	23.93679	-55.47234	0.2852416
40.23651	3717.745	24.07764	-55.45406	0.3065149
40.29062	3714.867	24.21665	-55.43623	0.3273962
40.34472	3711.979	24.35073	-55.41872	0.3468699
40.39883	3709.068	24.46978	-55.40137	0.3641781
40.45294	3706.129	24.57133	-55.38411	0.3787933
40.50705	3703.165	24.66153	-55.36685	0.3903547
40.56115	3700.183	24.74729	-55.34958	0.398662
40.61526	3697.188	24.8335	-55.33229	0.4036459
40.66936	3694.187	24.92102	-55.31502	0.4053596
40.72347	3691.186	25.00865	-55.29779	0.4039817
40.77758	3688.195	25.1004	-55.28065	0.3997921
40.83168	3685.22	25.20172	-55.26362	0.3931879
40.88579	3682.263	25.31689	-55.24673	0.3846864
40.9399	3679.313	25.44766	-55.23002	0.3749362
40.99401	3676.359	25.59008	-55.2135	0.3646932
41.04811	3673.389	25.73971	-55.1972	0.3548296
41.10222	3670.394	25.89311	-55.18114	0.3462999
41.15633	3667.362	26.04505	-55.16532	0.340101
41.21043	3664.291	26.18601	-55.14973	0.3371953
41.26454	3661.181	26.30381	-55.1343	0.3384098
41.31865	3658.039	26.38779	-55.11898	0.3443629
41.37276	3654.879	26.42994	-55.10367	0.3554016
41.42686	3651.718	26.42793	-55.08826	0.3715673
41.48097	3648.571	26.38525	-55.07263	0.3926458
41.53508	3645.45	26.30611	-55.05668	0.418202
41.58918	3642.361	26.19867	-55.04031	0.4476733
41.64329	3639.305	26.07355	-55.02343	0.4804222
41.6974	3636.28	25.94087	-55.00596	0.5158084
41.75151	3633.28	25.80914	-54.98779	0.5532103
41.80561	3630.298	25.6805	-54.9688	0.5920523
41.85972	3627.325	25.55229	-54.94884	0.6318006
41.91383	3624.349	25.42258	-54.92773	0.6719751
41.96793	3621.359	25.29126	-54.90528	0.7121194
42.02204	3618.347	25.15322	-54.88133	0.751797
42.07615	3615.31	25.00018	-54.8557	0.79058
42.13025	3612.25	24.82586	-54.82825	0.8280504
42.18436	3609.176	24.62808	-54.79887	0.8637779
42.23847	3606.103	24.40911	-54.76747	0.897365
42.29258	3603.048	24.17693	-54.73399	0.928435
42.34668	3600.026	23.9403	-54.69844	0.9566539
42.40079	3597.049	23.70764	-54.66083	0.9817559
42.4549	3594.125	23.48647	-54.62124	1.00352
42.509	3591.253	23.27803	-54.57978	1.021807
42.56311	3588.426	23.08203	-54.53656	1.036526
42.61722	3585.627	22.89855	-54.49176	1.047638
42.67133	3582.838	22.72582	-54.44553	1.055068
42.72543	3580.043	22.56412	-54.39804	1.058755
42.77954	3577.234	22.42017	-54.34946	1.058604
42.83364	3574.402	22.29953	-54.29993	1.05452
42.88775	3571.542	22.20415	-54.24961	1.046429
42.94186	3568.652	22.12842	-54.19867	1.034279
42.99596	3565.732	22.06007	-54.14729	1.018076
43.05007	3562.79	21.9931	-54.09568	0.9978919
43.10418	3559.838	21.92831	-54.04406	0.9738854
43.15829	3556.89	21.87264	-53.99271	0.9462937
43.21239	3553.958	21.83577	-53.94187	0.9154531
43.2665	3551.046	21.82573	-53.89184	0.8817906
43.32061	3548.153	21.84377	-53.84288	0.8458206
43.37471	3545.275	21.88436	-53.79524	0.808127
43.42882	3542.407	21.93782	-53.74914	0.7693337
43.48293	3539.545	21.99364	-53.70472	0.7300591
43.53704	3536.681	22.04515	-53.66212	0.6908909
43.59114	3533.811	22.08894	-53.62138	0.6523939
43.64525	3530.929	22.12289	-53.58254	0.6151069
43.69936	3528.028	22.147	-53.54554	0.579537
43.75346	3525.103	22.16017	-53.51029	0.5461418
43.80757	3522.153	22.16168	-53.47662	0.515283
43.86168	3519.185	22.15716	-53.44434	0.4872182
43.91579	3516.208	22.1562	-53.41324	0.4620962
43.96989	3513.235	22.16845	-53.38311	0.4399506
44.024	3510.278	22.20542	-53.35373	0.4207149
44.07811	3507.353	22.276	-53.32491	0.4042331
44.13221	3504.462	22.37971	-53.29644	0.3903146
44.18632	3501.606	22.50478	-53.26813	0.3787514
44.24043	3498.784	22.63404	-53.23982	0.3693366
44.29453	3495.989	22.75043	-53.21138	0.361881
44.34864	3493.214	22.84409	-53.1827	0.3562312
44.40275	3490.451	22.91529	-53.15371	0.3523007
44.45686	3487.69	22.96767	-53.12431	0.3500822
44.51096	3484.922	23.0102	-53.09447	0.3496447
44.56507	3482.137	23.05528	-53.06413	0.3511322
44.61917	3479.324	23.10989	-53.03322	0.3547371
44.67328	3476.479	23.17299	-53.00168	0.3606688
44.72739	3473.601	23.24084	-52.96941	0.3691024
44.7815	3470.696	23.30824	-52.93634	0.3801477
44.83561	3467.772	23.36812	-52.90237	0.3938319
44.88971	3464.835	23.41615	-52.86745	0.4101007
44.94382	3461.897	23.44525	-52.83156	0.4288001
44.99792	3458.965	23.44778	-52.79475	0.4497215
45.05203	3456.039	23.41673	-52.75709	0.4726178
45.10614	3453.119	23.34728	-52.71869	0.4972277
45.16025	3450.209	23.2441	-52.67968	0.5233057
45.21435	3447.309	23.12008	-52.64021	0.5506274
45.26846	3444.419	22.98867	-52.60038	0.5790134
45.32257	3441.539	22.86762	-52.56034	0.6083447
45.37667	3438.663	22.76802	-52.52018	0.6385409
45.43078	3435.786	22.68896	-52.47996	0.6695679
45.48489	3432.901	22.62367	-52.43972	0.7013967
45.53899	3430.01	22.56423	-52.39943	0.733996
45.5931	3427.118	22.50176	-52.35907	0.7673279
45.64721	3424.225	22.42752	-52.31855	0.8013356
45.70132	3421.333	22.334	-52.27775	0.8359356
45.75542	3418.445	22.2165	-52.23653	0.8709715
45.80953	3415.566	22.07339	-52.19475	0.9062319
45.86364	3412.707	21.90388	-52.15226	0.9414399
45.91774	3409.874	21.70778	-52.10889	0.976256
45.97185	3407.069	21.49138	-52.06452	1.010283
46.02596	3404.293	21.27313	-52.01901	1.043091
46.08007	3401.542	21.07677	-51.97224	1.074248
46.13417	3398.811	20.91863	-51.92407	1.103333
46.18828	3396.087	20.80747	-51.87441	1.129948
46.24239	3393.366	20.74379	-51.82316	1.153715
46.29649	3390.64	20.7209	-51.77024	1.174285
46.3506	3387.907	20.72929	-51.71563	1.191351
46.40471	3385.163	20.75299	-51.65929	1.204654
46.45881	3382.409	20.77357	-51.60124	1.213984
46.51292	3379.642	20.77578	-51.5415	1.219174
46.56703	3376.864	20.75091	-51.48014	1.220117
46.62114	3374.079	20.69596	-51.41719	1.216757
46.67524	3371.294	20.61405	-51.35277	1.209081
46.72935	3368.511	20.51468	-51.28701	1.197104
46.78345	3365.73	20.41069	-51.22012	1.18086
46.83756	3362.948	20.31792	-51.15236	1.160435
46.89167	3360.163	20.25139	-51.08404	1.135974
46.94578	3357.381	20.21993	-51.01553	1.107714
46.99989	3354.605	20.22638	-50.94721	1.075981
47.05399	3351.839	20.26391	-50.87947	1.0412
47.1081	3349.081	20.31781	-50.8127	1.003904
47.1622	3346.332	20.37098	-50.74727	0.9647146
47.21631	3343.591	20.406	-50.68352	0.9243309
47.27042	3340.857	20.41633	-50.62178	0.883538
47.32453	3338.128	20.40407	-50.56234	0.843196
47.37863	3335.399	20.37436	-50.50545	0.8042397
47.43274	3332.662	20.33282	-50.45132	0.7676592
47.48685	3329.912	20.28625	-50.4001	0.7345
47.54095	3327.145	20.23843	-50.35195	0.7057804
47.59506	3324.362	20.18971	-50.30695	0.6824675
47.64917	3321.57	20.13556	-50.26517	0.6653647
47.70327	3318.775	20.07377	-50.22662	0.6550034
47.75738	3315.985	20.00444	-50.19131	0.651552
47.81149	3313.208	19.92684	-50.1592	0.6547841
47.8656	3310.452	19.83859	-50.13021	0.6641063
47.9197	3307.723	19.73759	-50.10424	0.6786515
47.97381	3305.019	19.62513	-50.08115	0.6973785
48.02792	3302.339	19.50635	-50.06078	0.7191803
48.08202	3299.679	19.39073	-50.04292	0.7429575
48.13613	3297.038	19.2885	-50.02734	0.7676668
48.19024	3294.41	19.20423	-50.01379	0.7923673
48.24435	3291.794	19.13852	-50.00196	0.8162637
48.29845	3289.183	19.09372	-49.99153	0.8386601
48.35256	3286.575	19.0691	-49.9822	0.8589604
48.40667	3283.964	19.06021	-49.97365	0.8766621
48.46077	3281.347	19.06289	-49.96559	0.8913257
48.51488	3278.72	19.07296	-49.95774	0.9025824
48.56899	3276.086	19.08748	-49.94983	0.9101123
48.62309	3273.448	19.10364	-49.94165	0.9136453
48.6772	3270.818	19.1156	-49.93301	0.9129853
48.73131	3268.2	19.11971	-49.92379	0.9079986
48.78542	3265.598	19.11712	-49.91388	0.8986486
48.83952	3263.01	19.11349	-49.90324	0.8849888
48.89363	3260.429	19.11479	-49.8918	0.8671571
48.94773	3257.85	19.13013	-49.87953	0.8453795
49.00184	3255.264	19.17302	-49.8664	0.8199285
49.05595	3252.665	19.2516	-49.85239	0.7911355
49.11006	3250.045	19.36444	-49.83748	0.7593651
49.16417	3247.401	19.50251	-49.8217	0.7250305
49.21827	3244.729	19.65517	-49.80506	0.6885689
49.27238	3242.023	19.81097	-49.78763	0.650449
49.32648	3239.29	19.95566	-49.76944	0.6111729
49.38059	3236.537	20.07411	-49.75055	0.5712565
49.4347	3233.773	20.15333	-49.73101	0.5312142
49.48881	3231.009	20.18811	-49.71088	0.4915507
49.54291	3228.244	20.18051	-49.69023	0.4527469
49.59702	3225.476	20.13685	-49.66915	0.4152648
49.65113	3222.703	20.06846	-49.64773	0.3795544
49.70523	3219.919	19.98941	-49.62607	0.3460906
49.75934	3217.127	19.90958	-49.60427	0.3154019
49.81345	3214.329	19.83459	-49.58243	0.2880551
49.86755	3211.533	19.77064	-49.56062	0.2646324
49.92166	3208.745	19.72129	-49.53888	0.2456391
49.97577	3205.967	19.68333	-49.51722	0.2314031
50.02988	3203.197	19.65248	-49.49561	0.2219564
50.08398	3200.434	19.62737	-49.47397	0.21698
50.13809	3197.673	19.604	-49.4522	0.2158582
50.1922	3194.914	19.57874	-49.43019	0.2177795
50.2463	3192.156	19.55205	-49.40783	0.2218505
50.30041	3189.406	19.52638	-49.38498	0.2272082
50.35452	3186.666	19.50294	-49.36155	0.233074
50.40863	3183.937	19.48355	-49.33741	0.238802
50.46273	3181.216	19.46925	-49.31248	0.243838
50.51684	3178.501	19.46192	-49.28662	0.247713
50.57095	3175.792	19.46741	-49.25977	0.2500157
50.62505	3173.091	19.49052	-49.23181	0.2503875
50.67916	3170.398	19.53309	-49.20268	0.2485155
50.73327	3167.718	19.59144	-49.17232	0.2441245
50.78737	3165.052	19.65958	-49.14069	0.2369754
50.84148	3162.4	19.72694	-49.10776	0.2268721
50.89559	3159.762	19.78193	-49.07351	0.2136753
50.9497	3157.138	19.81804	-49.03792	0.1973115
51.0038	3154.523	19.83226	-49.001	0.1777847
51.05791	3151.917	19.8244	-48.96275	0.1551953
51.11201	3149.32	19.79573	-48.92319	0.1298109
51.16612	3146.736	19.75008	-48.88238	0.1022235
51.22023	3144.161	19.69516	-48.84035	0.07387903
51.27434	3141.592	19.64067	-48.79715	0.04950161
51.32845	3139.022	19.59446	-48.75283	0.04428173
51.38255	3136.45	19.5587	-48.70743	0.06673052
51.43666	3133.878	19.53192	-48.661	0.1014679
51.49076	3131.311	19.5115	-48.61358	0.1405284
51.54487	3128.75	19.49462	-48.56523	0.1815162
51.59898	3126.199	19.47895	-48.51605	0.2234032
51.65309	3123.657	19.46818	-48.46617	0.2655552
51.70719	3121.121	19.47049	-48.41577	0.3074791
51.7613	3118.584	19.49419	-48.36504	0.3487777
51.81541	3116.04	19.54621	-48.31417	0.3891207
51.86951	3113.486	19.63397	-48.26334	0.4282336
51.92362	3110.919	19.75926	-48.21272	0.465878
51.97773	3108.342	19.91581	-48.16246	0.5018418
52.03183	3105.763	20.09439	-48.11268	0.5359282
52.08594	3103.184	20.28203	-48.06345	0.5679521
52.14005	3100.6	20.46354	-48.01487	0.5977461
52.19416	3098.006	20.62736	-47.96696	0.6251598
52.24826	3095.397	20.76877	-47.91977	0.650073
52.30237	3092.778	20.88946	-47.87332	0.6723913
52.35648	3090.151	20.98935	-47.82761	0.6920431
52.41058	3087.521	21.06533	-47.78261	0.7090006
52.46469	3084.891	21.111	-47.73827	0.7232655
52.5188	3082.262	21.12384	-47.69452	0.7348838
52.57291	3079.639	21.10399	-47.65125	0.7439458
52.62701	3077.022	21.05634	-47.60835	0.7505953
52.68112	3074.412	20.98376	-47.56572	0.7550318
52.73523	3071.807	20.8873	-47.52326	0.7574877
52.78933	3069.203	20.76752	-47.48089	0.7582217
52.84344	3066.596	20.62407	-47.43853	0.7575067
52.89755	3063.991	20.45469	-47.39613	0.7556109
52.95165	3061.388	20.25548	-47.35362	0.7527796
53.00576	3058.789	20.02088	-47.31097	0.7492498
53.05987	3056.194	19.74544	-47.26815	0.745236
53.11398	3053.601	19.42895	-47.22513	0.7409213
53.16808	3051.008	19.07829	-47.18191	0.7364628
53.22219	3048.417	18.705	-47.13846	0.731982
53.27629	3045.826	18.32285	-47.09479	0.7275543
53.3304	3043.234	17.95009	-47.05086	0.723211
53.38451	3040.643	17.60615	-47.00666	0.7189501
53.43862	3038.051	17.3089	-46.96215	0.7147297
53.49273	3035.458	17.07105	-46.91727	0.710479
53.54683	3032.866	16.89334	-46.87197	0.7060997
53.60094	3030.278	16.76816	-46.82621	0.7014568
53.65504	3027.698	16.68566	-46.77994	0.6963806
53.70915	3025.134	16.63673	-46.73314	0.6906681
53.76326	3022.589	16.61097	-46.68579	0.684082
53.81737	3020.065	16.60219	-46.63789	0.6763729
53.87147	3017.561	16.61184	-46.58952	0.6672723
53.92558	3015.071	16.6416	-46.54075	0.6565021
53.97969	3012.598	16.68897	-46.49171	0.6438076
54.03379	3010.144	16.75515	-46.44258	0.6289446
54.0879	3007.708	16.84	-46.39349	0.6117355
54.14201	3005.286	16.94101	-46.34463	0.5920573
54.19611	3002.865	17.05359	-46.29617	0.5698744
54.25022	3000.435	17.17666	-46.24824	0.54525
54.30433	2997.991	17.30852	-46.20098	0.5183372
54.35844	2995.531	17.44555	-46.15448	0.4893666
54.41254	2993.055	17.57943	-46.10878	0.4586355
54.46665	2990.564	17.70378	-46.06391	0.4264868
54.52076	2988.068	17.81363	-46.01986	0.3933072
54.57486	2985.572	17.9077	-45.97662	0.3595226
54.62897	2983.081	17.98769	-45.93417	0.3256073
54.68308	2980.602	18.05582	-45.89249	0.2920719
54.73719	2978.136	18.10976	-45.85155	0.2594655
54.79129	2975.684	18.14647	-45.81133	0.2283674
54.8454	2973.242	18.16466	-45.7718	0.1993864
54.89951	2970.81	18.16571	-45.73298	0.1731168
54.95361	2968.386	18.15652	-45.69486	0.1501198
55.00772	2965.97	18.1434	-45.65746	0.1308362
55.06183	2963.561	18.13038	-45.62083	0.1154808
55.11593	2961.152	18.11989	-45.58498	0.1038775
55.17004	2958.739	18.11327	-45.54996	0.09535159
55.22415	2956.319	18.10873	-45.5158	0.08880451
55.27826	2953.887	18.10373	-45.48256	0.08298394
55.33236	2951.445	18.10065	-45.45026	0.07679262
55.38647	2948.999	18.10563	-45.41891	0.06956273
55.44057	2946.555	18.12613	-45.38853	0.06128025
55.49468	2944.115	18.16554	-45.3591	0.05303484
55.54879	2941.683	18.22155	-45.3306	0.04784747
55.6029	2939.257	18.2889	-45.30297	0.05053694
55.65701	2936.837	18.36201	-45.27611	0.06349616
55.71111	2934.419	18.43479	-45.2499	0.08465208
55.76522	2931.999	18.50025	-45.2242	0.1112536
55.81932	2929.569	18.55163	-45.19886	0.1415257
55.87343	2927.122	18.58392	-45.17375	0.1743479
55.92754	2924.653	18.5916	-45.1487	0.208933
55.98165	2922.162	18.57316	-45.12358	0.2446521
56.03576	2919.658	18.52858	-45.09829	0.2809714
56.08986	2917.149	18.4635	-45.07272	0.3174381
56.14397	2914.64	18.38692	-45.04679	0.3536511
56.19807	2912.136	18.31028	-45.02044	0.3892698
56.25218	2909.644	18.24392	-44.99358	0.4240316
56.30629	2907.161	18.19613	-44.96616	0.4577485
56.36039	2904.68	18.16737	-44.9381	0.4902901
56.4145	2902.194	18.15388	-44.90933	0.5215824
56.46861	2899.7	18.14812	-44.87981	0.5515742
56.52272	2897.206	18.14066	-44.84948	0.5802327
56.57682	2894.715	18.12412	-44.8183	0.6075283
56.63093	2892.235	18.09348	-44.78623	0.6334283
56.68504	2889.771	18.04512	-44.75322	0.657895
56.73914	2887.327	17.97721	-44.71919	0.6808587
56.79325	2884.903	17.8896	-44.68406	0.7022378
56.84736	2882.5	17.78136	-44.64776	0.7219089
56.90147	2880.117	17.65446	-44.61023	0.739727
56.95557	2877.75	17.51821	-44.57141	0.7555261
57.00968	2875.396	17.38147	-44.53126	0.7691202
57.06379	2873.05	17.25227	-44.48979	0.7803209
57.11789	2870.706	17.13659	-44.44701	0.7889473
57.172	2868.356	17.03642	-44.40297	0.7948264
57.22611	2865.99	16.949	-44.35774	0.7978148
57.28022	2863.599	16.87188	-44.3114	0.7978151
57.33432	2861.183	16.80218	-44.26405	0.7947811
57.38843	2858.746	16.73821	-44.21582	0.7887371
57.44254	2856.292	16.67896	-44.16684	0.7797616
57.49664	2853.827	16.62363	-44.11726	0.7679805
57.55075	2851.362	16.56925	-44.06725	0.7535496
57.60485	2848.906	16.51069	-44.01696	0.7366525
57.65896	2846.47	16.44267	-43.96656	0.7174723
57.71307	2844.06	16.36362	-43.91616	0.6961862
57.76718	2841.682	16.27402	-43.86584	0.6729653
57.82129	2839.337	16.17967	-43.81568	0.6479862
57.87539	2837.019	16.0918	-43.76571	0.6214351
57.9295	2834.715	16.0278	-43.71598	0.5935048
57.9836	2832.414	16.00093	-43.66655	0.5643865
58.03771	2830.105	16.01688	-43.61747	0.5342658
58.09182	2827.777	16.07393	-43.5688	0.5033063
58.14593	2825.424	16.16591	-43.5206	0.4716729
58.20004	2823.048	16.28556	-43.47294	0.4395297
58.25414	2820.663	16.42547	-43.42591	0.4070671
58.30825	2818.28	16.57375	-43.37962	0.3745089
58.36235	2815.91	16.71654	-43.33418	0.3421152
58.41646	2813.559	16.83975	-43.28968	0.3101835
58.47057	2811.23	16.93204	-43.24625	0.2790275
58.52468	2808.924	16.98888	-43.20396	0.248992
58.57878	2806.635	17.00998	-43.16293	0.2204571
58.63289	2804.36	16.99782	-43.12322	0.1938214
58.687	2802.094	16.95855	-43.08489	0.1695366
58.7411	2799.833	16.90146	-43.04792	0.1481111
58.79521	2797.572	16.83308	-43.0123	0.1301256
58.84932	2795.305	16.75792	-42.97794	0.1161945
58.90342	2793.03	16.68482	-42.94474	0.1068386
58.95753	2790.746	16.62251	-42.91256	0.1022484
59.01164	2788.451	16.57788	-42.88123	0.1021147
59.06575	2786.148	16.55277	-42.8506	0.1056859
59.11985	2783.84	16.54636	-42.82051	0.1120572
59.17396	2781.528	16.55476	-42.79083	0.1204323
59.22807	2779.21	16.57238	-42.76143	0.1302271
59.28217	2776.892	16.59321	-42.7322	0.1410449
59.33628	2774.577	16.60839	-42.70303	0.1526269
59.39039	2772.268	16.61092	-42.67384	0.1648025
59.4445	2769.965	16.59805	-42.64454	0.1774591
59.4986	2767.668	16.57148	-42.61508	0.1905092
59.55271	2765.376	16.54	-42.58537	0.2038452
59.60682	2763.085	16.51483	-42.55533	0.2173333
59.66092	2760.788	16.50562	-42.52482	0.2307945
59.71503	2758.482	16.51703	-42.49366	0.2440123
59.76914	2756.164	16.5458	-42.46166	0.2567405
59.82324	2753.839	16.58294	-42.42861	0.2687053
59.87735	2751.509	16.62348	-42.39429	0.2796351
59.93146	2749.182	16.6668	-42.35852	0.2892731
59.98557	2746.867	16.71181	-42.32112	0.2973958
60.03967	2744.568	16.75659	-42.2819	0.303812
60.09378	2742.28	16.7969	-42.24075	0.3083734
60.14788	2740.002	16.82862	-42.19754	0.3110013
60.20199	2737.733	16.85161	-42.15218	0.3117033
60.2561	2735.472	16.86852	-42.1046	0.3105738
60.31021	2733.215	16.87976	-42.05473	0.3077916
60.36432	2730.96	16.8828	-42.00248	0.3036221
60.41842	2728.704	16.87813	-41.94777	0.2984429
60.47253	2726.444	16.86576	-41.89051	0.2927276
60.52663	2724.176	16.84721	-41.83065	0.28706
60.58074	2721.894	16.82397	-41.76812	0.2820719
60.63485	2719.596	16.79796	-41.70285	0.2784043
60.68896	2717.282	16.76944	-41.63481	0.276659
60.74306	2714.954	16.73827	-41.56393	0.2773448
60.79717	2712.613	16.70178	-41.49018	0.280787
60.85128	2710.262	16.65458	-41.41351	0.2871274
60.90538	2707.912	16.59509	-41.33385	0.296265
60.95949	2705.57	16.52407	-41.25117	0.3079285
61.0136	2703.244	16.44453	-41.1654	0.3217184
61.0677	2700.938	16.35645	-41.07648	0.3371831
61.12181	2698.652	16.26237	-40.98437	0.3538739
61.17592	2696.383	16.16955	-40.88902	0.3713858
61.23003	2694.126	16.08423	-40.79039	0.3893655
61.28413	2691.875	16.00996	-40.68848	0.4075392
61.33824	2689.625	15.94898	-40.58329	0.4256983
61.39235	2687.37	15.90113	-40.47484	0.4436971
61.44645	2685.114	15.8637	-40.36313	0.4614487
61.50056	2682.862	15.83429	-40.24817	0.4789208
61.55467	2680.62	15.8105	-40.12993	0.4961378
61.60878	2678.393	15.79022	-40.00839	0.5131558
61.66288	2676.185	15.77442	-39.88347	0.5300497
61.71699	2673.998	15.7633	-39.75509	0.5468923
61.7711	2671.834	15.75329	-39.62315	0.5637318
61.8252	2669.692	15.74169	-39.48751	0.5805882
61.87931	2667.571	15.72786	-39.34805	0.5974196
61.93342	2665.468	15.71363	-39.20465	0.6141293
61.98752	2663.38	15.70378	-39.05719	0.6305422
62.04163	2661.301	15.70545	-38.90554	0.6464332
62.09574	2659.225	15.72367	-38.74958	0.6615161
62.14985	2657.15	15.75825	-38.58918	0.6754791
62.20395	2655.077	15.80778	-38.42416	0.6879997
62.25806	2653.01	15.86915	-38.25434	0.6987857
62.31216	2650.948	15.93564	-38.07952	0.7076034
62.36627	2648.894	16.00005	-37.89943	0.7142736
62.42038	2646.844	16.05263	-37.71381	0.71873
62.47449	2644.796	16.08408	-37.52234	0.7210094
62.52859	2642.748	16.09127	-37.3247	0.7212322
62.5827	2640.699	16.077	-37.12053	0.7195817
62.63681	2638.656	16.04274	-36.90945	0.7162998
62.69091	2636.62	15.9878	-36.69106	0.7116865
62.74502	2634.594	15.91259	-36.46491	0.706071
62.79913	2632.58	15.81667	-36.23057	0.6997939
62.85324	2630.58	15.70435	-35.98753	0.6931826
62.90734	2628.6	15.58115	-35.73528	0.6865207
62.96145	2626.645	15.45462	-35.47322	0.6800534
63.01556	2624.712	15.32596	-35.20071	0.6739829
63.06966	2622.797	15.19293	-34.91711	0.6684583
63.12377	2620.893	15.05772	-34.62169	0.6635652
63.17788	2618.994	14.92609	-34.31372	0.6593275
63.23198	2617.103	14.80245	-33.99249	0.6556988
63.28609	2615.216	14.68989	-33.65726	0.6525716
63.3402	2613.333	14.58875	-33.3073	0.6497728
63.39431	2611.45	14.50105	-32.94188	0.6470713
63.44841	2609.566	14.42824	-32.56028	0.6441981
63.50252	2607.684	14.37195	-32.16177	0.6408546
63.55663	2605.809	14.33139	-31.74564	0.6367483
63.61073	2603.946	14.30614	-31.31118	0.6315163
63.66484	2602.1	14.29533	-30.85771	0.6248507
63.71895	2600.273	14.29708	-30.38452	0.6164377
63.77306	2598.471	14.31176	-29.89096	0.6059915
63.82716	2596.695	14.33666	-29.37637	0.5932615
63.88127	2594.948	14.36719	-28.8401	0.5780222
63.93538	2593.23	14.39839	-28.28151	0.5601085
63.98948	2591.537	14.42938	-27.69993	0.5394037
64.04359	2589.863	14.46322	-27.09469	0.515864
64.09769	2588.205	14.50403	-26.46508	0.4894733
64.1518	2586.555	14.55387	-25.81036	0.4603081
64.20591	2584.91	14.61344	-25.12974	0.4284998
64.26002	2583.266	14.68251	-24.42241	0.394243
64.31413	2581.629	14.75919	-23.68752	0.3577722
64.36823	2580.005	14.83625	-22.9242	0.319353
64.42234	2578.407	14.90142	-22.13156	0.279319
64.47645	2576.844	14.94086	-21.3087	0.2380382
64.53056	2575.321	14.94667	-20.45472	0.1959578
64.58466	2573.844	14.91651	-19.5687	0.1535516
64.63876	2572.418	14.85248	-18.64972	0.1114423
64.69287	2571.045	14.75761	-17.69686	0.07061704
64.74698	2569.724	14.63209	-16.70916	0.03447184
64.80109	2568.457	14.47987	-15.68565	0.02808809
64.85519	2567.247	14.31178	-14.62529	0.05861337
64.9093	2566.101	14.14197	-13.52697	0.09317505
64.96341	2565.023	13.98287	-12.38955	0.1266276
65.01752	2564.018	13.84387	-11.21181	0.1579944
65.07162	2563.083	13.73269	-9.992517	0.1869461
65.12573	2562.217	13.65541	-8.730388	0.2133061
65.17984	2561.417	13.61259	-7.424108	0.2370157
65.23394	2560.683	13.60082	-6.072387	0.2581395
65.28805	2560.023	13.61015	-4.673931	0.2768562
65.34216	2559.445	13.63193	-3.227417	0.2934606
65.39626	2558.954	13.66236	-1.731586	0.3083575
65.45037	2558.554	13.70233	-0.1851846	0.3220505
65.50448	2558.249	13.75063	1.413071	0.335065
65.55859	2558.042	13.8066	3.064409	0.3480394
65.61269	2557.937	13.86813	4.770092	0.3615651
65.6668	2557.931	13.93455	6.531367	0.376182
65.72091	2558.02	14.00812	8.349474	0.3923209
65.77502	2558.196	14.0922	10.22567	0.4102665
65.82912	2558.453	14.19129	12.16117	0.430134
65.88322	2558.785	14.30884	14.15723	0.4519018
65.93733	2559.187	14.44298	16.21508	0.4754131
65.99144	2559.663	14.59039	18.33599	0.5003307
66.04555	2560.221	14.74545	20.52119	0.5263417
66.09966	2560.867	14.90343	22.77195	0.5530452
66.15376	2561.608	15.05699	25.08946	0.5799767
66.20787	2562.448	15.19794	27.4751	0.6068224
66.26198	2563.392	15.32134	29.93018	0.6332049
66.31609	2564.442	15.42588	32.45607	0.658823
66.37019	2565.606	15.51298	35.05417	0.6834319
66.4243	2566.892	15.58197	37.72598	0.7067289
66.4784	2568.306	15.63035	40.47294	0.7285638
66.53251	2569.856	15.65721	43.29657	0.7487138
66.58662	2571.552	15.66746	46.19841	0.767009
66.64072	2573.402	15.66846	49.17999	0.7833298
66.69483	2575.412	15.66313	52.24284	0.7976055
66.74894	2577.584	15.65163	55.38853	0.8098372
66.80305	2579.922	15.63613	58.61863	0.8200858
66.85715	2582.426	15.61947	61.93468	0.8284438
66.91126	2585.099	15.60396	65.33829	0.8350658
66.96537	2587.941	15.58767	68.83096	0.8400237
67.01948	2590.959	15.56849	72.41425	0.8435165
67.07359	2594.161	15.5471	76.08959	0.8456913
67.12769	2597.551	15.52482	79.85851	0.8468023
67.18179	2601.133	15.50545	83.72236	0.8470467
67.2359	2604.911	15.49306	87.68243	0.8466644
67.29001	2608.894	15.48988	91.73997	0.8459287
67.34412	2613.09	15.49912	95.89619	0.8451481
67.39822	2617.507	15.52222	100.1522	0.8446482
67.45233	2622.152	15.55861	104.509	0.8447472
67.50644	2627.03	15.60762	108.9677	0.8457793
67.56055	2632.143	15.66715	113.5291	0.848078
67.61465	2637.494	15.73467	118.194	0.8520022
67.66876	2643.089	15.80665	122.9633	0.8578768
67.72286	2648.931	15.88006	127.8376	0.8660333
67.77697	2655.023	15.95468	132.8175	0.8768188
67.83108	2661.364	16.03518	137.9033	0.8904969
67.88519	2667.957	16.12642	143.0955	0.9074044
67.93929	2674.808	16.23126	148.3941	0.9277933
67.9934	2681.928	16.34965	153.7993	0.9519411
68.04751	2689.328	16.48145	159.3109	0.9800082
68.10162	2697.022	16.62449	164.9286	1.012149
68.15572	2705.022	16.77214	170.6521	1.048465
68.20983	2713.345	16.9143	176.481	1.08894
68.26394	2722.009	17.03637	182.4145	1.133556
68.31805	2731.027	17.12714	188.4521	1.182197
68.37215	2740.409	17.18321	194.5929	1.234708
68.42625	2750.155	17.20232	200.8363	1.290823
68.48036	2760.263	17.18131	207.1811	1.350207
68.53447	2770.728	17.12199	213.6265	1.412464
68.58858	2781.55	17.03214	220.1714	1.477125
68.64268	2792.727	16.92161	226.8147	1.543678
68.69679	2804.262	16.79946	233.5551	1.611558
68.7509	2816.171	16.67856	240.3914	1.680232
68.80501	2828.472	16.57494	247.3222	1.749114
68.85912	2841.185	16.50585	254.346	1.817635
68.91322	2854.322	16.48222	261.4613	1.885269
68.96732	2867.899	16.50474	268.6664	1.95155
69.02143	2881.923	16.56617	275.9594	2.016061
69.07554	2896.402	16.65536	283.338	2.078517
69.12965	2911.333	16.76	290.8001	2.138698
69.18375	2926.714	16.86955	298.3428	2.196489
69.23786	2942.536	16.97906	305.9633	2.251872
69.29197	2958.796	17.09077	313.6583	2.304957
69.34608	2975.489	17.20686	321.4239	2.355962
69.40018	2992.616	17.32413	329.256	2.405126
69.45429	3010.186	17.44242	337.1501	2.452818
69.5084	3028.204	17.56773	345.1008	2.499417
69.56251	3046.671	17.71189	353.1026	2.545343
69.61661	3065.594	17.88557	361.1489	2.591011
69.67072	3084.981	18.09406	369.2327	2.636814
69.72482	3104.842	18.33671	377.3461	2.683105
69.77893	3125.182	18.60671	385.4806	2.730174
69.83304	3146.012	18.89416	393.6267	2.77826
69.88715	3167.344	19.18808	401.7742	2.827584
69.94125	3189.189	19.47633	409.912	2.878263
69.99536	3211.553	19.74659	418.0282	2.930431
70.04947	3234.43	19.99147	426.1101	2.984119
70.10358	3257.813	20.20898	434.1442	3.039326
70.15768	3281.688	20.40123	442.1163	3.096
70.21178	3306.046	20.56991	450.0115	3.154056
70.26589	3330.884	20.71595	457.8143	3.213294
70.32	3356.206	20.84583	465.5085	3.273481
70.37411	3382.016	20.97101	473.0775	3.334316
70.42822	3408.32	21.1028	480.5041	3.395352
70.48232	3435.12	21.2498	487.7706	3.456134
70.53643	3462.424	21.41819	494.8595	3.516145
70.59054	3490.24	21.6098	501.7527	3.574837
70.64465	3518.571	21.81742	508.4321	3.631612
70.69875	3547.419	22.02819	514.8796	3.685909
70.75286	3576.784	22.23408	521.0773	3.737121
70.80696	3606.664	22.43234	527.0074	3.784809
70.86107	3637.049	22.62692	532.6527	3.828382
70.91518	3667.934	22.81958	537.9964	3.867563
70.96928	3699.314	23.00623	543.0222	3.901933
71.02339	3731.189	23.17821	547.7146	3.931308
71.0775	3763.561	23.33142	552.059	3.955591
71.13161	3796.428	23.46626	556.0419	3.974658
71.18571	3829.781	23.58771	559.6502	3.988527
71.23982	3863.614	23.70869	562.8727	3.997228
71.29393	3897.917	23.84458	565.6987	4.00081
71.34804	3932.684	24.00538	568.1188	3.999403
71.40215	3967.912	24.20182	570.1254	3.993121
71.45625	4003.602	24.44075	571.7113	3.982135
71.51035	4039.749	24.72169	572.8714	3.966681
71.56446	4076.334	25.03863	573.6011	3.947054
71.61857	4113.329	25.38275	573.8976	3.923435
71.67268	4150.695	25.74495	573.7592	3.89629
71.72678	4188.381	26.11447	573.1855	3.865834
71.78089	4226.333	26.47959	572.1774	3.832481
71.835	4264.489	26.83289	570.7365	3.796644
71.88911	4302.787	27.16798	568.8662	3.758725
71.94321	4341.158	27.48066	566.5704	3.719079
71.99732	4379.531	27.76987	563.8541	3.678286
72.05142	4417.833	28.03284	560.7235	3.636635
72.10553	4455.984	28.26761	557.1854	3.594557
72.15964	4493.905	28.47701	553.2477	3.55243
72.21375	4531.514	28.66638	548.9189	3.510509
72.26785	4568.736	28.84554	544.2083	3.469018
72.32196	4605.5	29.02799	539.126	3.428158
72.37607	4641.735	29.22688	533.6827	3.388009
72.43018	4677.367	29.44729	527.8892	3.348529
72.48428	4712.322	29.69151	521.7573	3.309783
72.53839	4746.535	29.96037	515.2993	3.271632
72.5925	4779.951	30.25065	508.5278	3.234054
72.64661	4812.521	30.5475	501.4558	3.196938
72.70071	4844.207	30.83515	494.0969	3.160079
72.75481	4874.968	31.0949	486.4648	3.123378
72.80892	4904.765	31.31138	478.5737	3.086581
72.86303	4933.562	31.4825	470.4383	3.049524
72.91714	4961.332	31.61331	462.0735	3.011972
72.97124	4988.059	31.71217	453.4946	2.973694
73.02535	5013.733	31.78678	444.7174	2.93444
73.07946	5038.358	31.84647	435.7581	2.893912
73.13357	5061.938	31.9004	426.6331	2.851813
73.18768	5084.474	31.9605	417.3595	2.807829
73.24178	5105.968	32.03286	407.9544	2.761637
73.29588	5126.432	32.11111	398.4355	2.71294
73.34999	5145.884	32.18847	388.8205	2.661434
73.4041	5164.358	32.26271	379.1279	2.606908
73.45821	5181.895	32.33727	369.3759	2.549209
73.51231	5198.536	32.41099	359.5835	2.488298
73.56642	5214.329	32.47985	349.7693	2.424267
73.62053	5229.32	32.53995	339.9525	2.357295
73.67464	5243.552	32.58249	330.1518	2.287748
73.72874	5257.063	32.59911	320.3863	2.216077
73.78285	5269.893	32.58663	310.6746	2.142899
73.83696	5282.082	32.54569	301.0351	2.069023
73.89107	5293.661	32.48743	291.4859	1.995369
73.94517	5304.665	32.43071	282.0444	1.922949
73.99928	5315.136	32.39735	272.7275	1.852925
74.05338	5325.116	32.40263	263.5515	1.786437
74.10749	5334.646	32.4565	254.5314	1.724619
74.1616	5343.766	32.56076	245.6819	1.668599
74.21571	5352.519	32.71132	237.0165	1.619358
74.26981	5360.947	32.90071	228.5475	1.577719
74.32392	5369.089	33.12112	220.2862	1.544226
74.37803	5376.982	33.3609	212.2428	1.519169
74.43214	5384.649	33.60249	204.4259	1.502504
74.48624	5392.11	33.82983	196.8431	1.493893
74.54034	5399.373	34.03353	189.5006	1.492787
74.59445	5406.438	34.20968	182.4032	1.498411
74.64856	5413.31	34.36169	175.5546	1.509873
74.70267	5419.998	34.49191	168.9568	1.526212
74.75677	5426.507	34.60187	162.6109	1.546497
74.81088	5432.839	34.69302	156.5164	1.569786
74.86499	5438.99	34.76793	150.6718	1.59521
74.9191	5444.952	34.82696	145.0744	1.622071
74.97321	5450.721	34.8768	139.7202	1.649521
75.02731	5456.3	34.92085	134.6043	1.677055
75.08142	5461.704	34.96186	129.7209	1.704133
75.13553	5466.944	35.00336	125.0633	1.730538
75.18963	5472.026	35.0497	120.624	1.75592
75.24374	5476.956	35.09812	116.3949	1.780144
75.29784	5481.739	35.14152	112.3671	1.803101
75.35195	5486.384	35.17049	108.5317	1.824798
75.40606	5490.895	35.17762	104.8794	1.845298
75.46017	5495.271	35.15768	101.4005	1.864771
75.51427	5499.515	35.10943	98.08552	1.883444
75.56838	5503.63	35.03859	94.9248	1.90166
75.62249	5507.627	34.9537	91.90884	1.919852
75.6766	5511.513	34.86822	89.0283	1.938567
75.73071	5515.302	34.7963	86.27408	1.958472
75.78481	5519.01	34.74669	83.63741	1.980311
75.83891	5522.646	34.7239	81.10976	2.004878
75.89302	5526.222	34.73241	78.68301	2.033035
75.94713	5529.75	34.77234	76.34936	2.065618
76.00124	5533.236	34.84091	74.10147	2.103444
76.05534	5536.685	34.93301	71.93237	2.147205
76.10945	5540.096	35.03975	69.83554	2.197521
76.16356	5543.466	35.15331	67.80498	2.2549
76.21767	5546.787	35.27404	65.83514	2.319726
76.27177	5550.053	35.40632	63.92101	2.392263
76.32588	5553.254	35.55699	62.05799	2.472694
76.37999	5556.386	35.73128	60.24197	2.561108
76.43409	5559.449	35.93352	58.46926	2.657512
76.4882	5562.447	36.16694	56.73662	2.761849
76.5423	5565.384	36.43003	55.04118	2.87402
76.59641	5568.258	36.7164	53.38041	2.993912
76.65052	5571.067	37.0167	51.75216	3.121364
76.70463	5573.809	37.32487	50.15457	3.256183
76.75874	5576.495	37.63326	48.58607	3.398093
76.81284	5579.134	37.93586	47.04537	3.54675
76.86695	5581.725	38.22002	45.53142	3.70173
76.92106	5584.262	38.47835	44.04342	3.862528
76.97517	5586.734	38.70694	42.58084	4.028572
77.02927	5589.133	38.90755	41.14334	4.199226
77.08337	5591.454	39.08498	39.73079	4.373744
77.13748	5593.685	39.24681	38.34321	4.551285
77.19159	5595.813	39.39699	36.98074	4.730929
77.2457	5597.822	39.53931	35.6437	4.911692
77.2998	5599.708	39.67978	34.33248	5.092582
77.35391	5601.473	39.82122	33.04765	5.272581
77.40802	5603.124	39.96423	31.78984	5.450663
77.46213	5604.671	40.10788	30.55976	5.625824
77.51624	5606.131	40.24935	29.35818	5.797084
77.57034	5607.513	40.38379	28.18593	5.963519
77.62445	5608.823	40.50507	27.0438	6.124303
77.67855	5610.064	40.60791	25.9327	6.278671
77.73266	5611.231	40.69259	24.85352	6.425949
77.78677	5612.32	40.7649	23.80724	6.565516
77.84087	5613.331	40.83734	22.79479	6.696848
77.89498	5614.267	40.92477	21.81708	6.819496
77.94909	5615.127	41.04625	20.87496	6.933107
78.0032	5615.906	41.2202	19.96926	7.03741
78.0573	5616.598	41.46115	19.10081	7.132241
78.11141	5617.201	41.77258	18.27039	7.217507
78.16552	5617.715	42.1573	17.47882	7.293184
78.21963	5618.144	42.61156	16.72687	7.359304
78.27373	5618.497	43.12797	16.01525	7.415952
78.32784	5618.777	43.69468	15.34461	7.463244
78.38194	5618.985	44.29779	14.71554	7.501333
78.43605	5619.12	44.93095	14.12857	7.530392
78.49016	5619.183	45.5935	13.58417	7.550628
78.54427	5619.179	46.27676	13.08264	7.562326
78.59837	5619.116	46.96663	12.62428	7.565763
78.65248	5619.004	47.6534	12.20922	7.56128
78.70659	5618.863	48.32623	11.83751	7.54921
78.7607	5618.708	48.982	11.50901	7.529949
78.8148	5618.539	49.62389	11.22343	7.503908
78.86891	5618.353	50.25889	10.98031	7.471512
78.92301	5618.144	50.89289	10.77911	7.433208
78.97712	5617.91	51.52721	10.61913	7.389461
79.03123	5617.655	52.16426	10.49961	7.340741
79.08533	5617.383	52.81092	10.41967	7.287521
79.13944	5617.102	53.46748	10.37839	7.230265
79.19355	5616.816	54.12564	10.37476	7.169407
79.24766	5616.534	54.77129	10.40774	7.105323
79.30177	5616.263	55.39082	10.47625	7.038328
79.35587	5616.013	55.97239	10.57919	6.968665
79.40998	5615.802	56.5041	10.71538	6.896514
79.46409	5615.655	56.97929	10.8837	6.821953
79.51819	5615.605	57.39422	11.08291	6.744974
79.5723	5615.683	57.74558	11.31179	6.665453
79.6264	5615.901	58.0299	11.56903	6.583177
79.68051	5616.258	58.25049	11.85327	6.497851
79.73462	5616.743	58.41807	12.16316	6.409134
79.78873	5617.347	58.55019	12.49726	6.316662
79.84283	5618.062	58.67177	12.85408	6.220074
79.89694	5618.881	58.80538	13.23204	6.119057
79.95105	5619.785	58.96756	13.62944	6.013375
80.00516	5620.755	59.1689	14.04455	5.902891
80.05927	5621.769	59.41009	14.47555	5.78757
80.11337	5622.81	59.68789	14.92057	5.66748
80.16747	5623.868	59.99143	15.37765	5.542773
80.22158	5624.947	60.30526	15.84475	5.413678
80.27569	5626.058	60.61265	16.31976	5.280495
80.3298	5627.219	60.8904	16.80049	5.143595
80.3839	5628.439	61.11372	17.28474	5.003421
80.43801	5629.719	61.27121	17.77028	4.860466
80.49212	5631.05	61.36837	18.25489	4.715267
80.54623	5632.417	61.4222	18.7364	4.568403
80.60033	5633.811	61.45932	19.21268	4.420482
80.65444	5635.229	61.50034	19.68164	4.27213
80.70855	5636.67	61.56071	20.14119	4.123967
80.76265	5638.13	61.64669	20.58925	3.976583
80.81676	5639.596	61.7607	21.02376	3.830519
80.87086	5641.064	61.908	21.44268	3.686267
80.92497	5642.534	62.08503	21.84402	3.544274
80.97908	5644.013	62.28273	22.22585	3.404944
81.03319	5645.513	62.49375	22.58627	3.268662
81.0873	5647.047	62.71354	22.92341	3.135823
81.1414	5648.623	62.93449	23.23547	3.006818
81.19551	5650.248	63.14754	23.52074	2.882049
81.24962	5651.916	63.33915	23.77755	2.761901
81.30373	5653.611	63.50037	24.00435	2.646752
81.35783	5655.311	63.62816	24.19972	2.536916
81.41193	5656.996	63.72744	24.36245	2.432642
81.46604	5658.658	63.81398	24.4915	2.334065
81.52015	5660.293	63.91161	24.58603	2.241196
81.57426	5661.905	64.04108	24.64544	2.153916
81.62836	5663.494	64.21391	24.66934	2.071986
81.68247	5665.062	64.43005	24.65754	1.995065
81.73658	5666.608	64.67797	24.61009	1.922749
81.79069	5668.138	64.94495	24.52717	1.854608
81.8448	5669.658	65.21766	24.40909	1.79022
81.8989	5671.179	65.48315	24.25621	1.729192
81.95301	5672.703	65.72863	24.06896	1.671187
82.00711	5674.231	65.94202	23.84777	1.61596
82.06122	5675.755	66.11409	23.59307	1.56338
82.11533	5677.271	66.23899	23.3053	1.513444
82.16943	5678.766	66.31484	22.98485	1.466282
82.22354	5680.238	66.34841	22.63207	1.422123
82.27765	5681.687	66.35297	22.2473	1.381298
82.33176	5683.119	66.3401	21.83081	1.344192
82.38586	5684.535	66.31785	21.38287	1.311198
82.43997	5685.935	66.29195	20.90373	1.282681
82.49408	5687.317	66.26258	20.39365	1.258943
82.54819	5688.696	66.22804	19.85291	1.240184
82.60229	5690.079	66.1854	19.28181	1.226458
82.65639	5691.477	66.13006	18.68067	1.21766
82.7105	5692.884	66.05638	18.04979	1.213515
82.76461	5694.286	65.95692	17.38951	1.213608
82.81872	5695.666	65.82953	16.70021	1.217413
82.87283	5697.009	65.67841	15.98226	1.224323
82.92693	5698.301	65.50913	15.23606	1.233691
82.98104	5699.534	65.32677	14.46203	1.244876
83.03515	5700.696	65.14327	13.66054	1.257294
83.08926	5701.777	64.9747	12.83193	1.270462
83.14336	5702.773	64.8404	11.97645	1.284035
83.19747	5703.684	64.75846	11.09428	1.297813
83.25157	5704.509	64.73757	10.18553	1.311754
83.30568	5705.248	64.78163	9.250279	1.325948
83.35979	5705.903	64.87794	8.288592	1.340596
83.41389	5706.488	65.00523	7.300546	1.355988
83.468	5707.004	65.14047	6.286228	1.37247
83.52211	5707.456	65.2606	5.245771	1.390423
83.57622	5707.839	65.35432	4.179381	1.410233
83.63033	5708.157	65.42738	3.087372	1.432246
83.68443	5708.412	65.48512	1.970164	1.456748
83.73854	5708.611	65.53294	0.8282903	1.48395
83.79265	5708.752	65.57873	-0.3376195	1.513999
83.84676	5708.841	65.629	-1.52684	1.546966
83.90086	5708.876	65.69028	-2.738561	1.582866
83.95496	5708.856	65.77256	-3.971924	1.621655
84.00907	5708.774	65.88131	-5.226043	1.663246
84.06318	5708.631	66.01755	-6.49998	1.70753
84.11729	5708.426	66.17675	-7.792789	1.754374
84.17139	5708.165	66.34968	-9.10353	1.803635
84.2255	5707.845	66.52363	-10.43129	1.855147
84.27961	5707.465	66.68356	-11.77517	1.908702
84.33372	5707.011	66.81924	-13.13433	1.964044
84.38783	5706.468	66.92757	-14.50789	2.02086
84.44193	5705.819	67.01427	-15.89502	2.078807
84.49603	5705.054	67.09108	-17.29486	2.137537
84.55014	5704.171	67.17867	-18.70654	2.196725
84.60425	5703.186	67.29632	-20.12916	2.256068
84.65836	5702.108	67.45837	-21.56178	2.315299
84.71246	5700.943	67.67298	-23.00344	2.374182
84.76657	5699.687	67.94122	-24.45314	2.4325
84.82068	5698.337	68.25823	-25.90988	2.490017
84.87479	5696.889	68.61829	-27.37261	2.546505
84.92889	5695.35	69.00669	-28.84029	2.601738
84.983	5693.727	69.40077	-30.31186	2.655505
85.03711	5692.023	69.77623	-31.78626	2.7076
85.09122	5690.237	70.1105	-33.26243	2.75784
85.14532	5688.37	70.39278	-34.73935	2.806063
85.19942	5686.417	70.61714	-36.21603	2.852125
85.25353	5684.377	70.79321	-37.69149	2.895898
85.30764	5682.247	70.93741	-39.16477	2.937267
85.36175	5680.022	71.06672	-40.63494	2.97612
85.41586	5677.7	71.1955	-42.10114	3.012347
85.46996	5675.282	71.32811	-43.56261	3.045836
85.52407	5672.765	71.46273	-45.01863	3.076497
85.57818	5670.148	71.59602	-46.46851	3.10427
85.63229	5667.438	71.71871	-47.91157	3.129149
85.68639	5664.642	71.81799	-49.34712	3.151229
85.74049	5661.759	71.88291	-50.77443	3.170736
85.7946	5658.793	71.9052	-52.19275	3.187992
85.84871	5655.75	71.87819	-53.60124	3.203441
85.90282	5652.631	71.79668	-54.999	3.217595
85.95692	5649.438	71.66321	-56.38506	3.231013
86.01103	5646.167	71.48412	-57.75842	3.24426
86.06514	5642.811	71.27169	-59.118	3.257891
86.11925	5639.371	71.0436	-60.46275	3.272443
86.17336	5635.853	70.8139	-61.7916	3.288408
86.22746	5632.259	70.59314	-63.10352	3.306196
86.28157	5628.59	70.38728	-64.3975	3.326102
86.33568	5624.841	70.20523	-65.67255	3.348282
86.38978	5621.01	70.05123	-66.92773	3.37277
86.44389	5617.095	69.92125	-68.16214	3.399492
86.49799	5613.099	69.80608	-69.37491	3.428264
86.5521	5609.024	69.69948	-70.56523	3.458778
86.60621	5604.881	69.59802	-71.73236	3.490635
86.66032	5600.673	69.4993	-72.87564	3.523324
86.71442	5596.402	69.40431	-73.99451	3.55626
86.76853	5592.067	69.31057	-75.08849	3.588771
86.82264	5587.671	69.21214	-76.15712	3.620156
86.87675	5583.217	69.10808	-77.20007	3.649705
86.93085	5578.713	69.00123	-78.217	3.676744
86.98495	5574.163	68.89797	-79.20773	3.700608
87.03906	5569.568	68.80645	-80.17211	3.720691
87.09317	5564.928	68.73551	-81.11014	3.736413
87.14728	5560.245	68.68461	-82.02187	3.747275
87.20139	5555.51	68.65019	-82.90742	3.75283
87.25549	5550.723	68.62791	-83.76702	3.752705
87.3096	5545.879	68.60591	-84.60093	3.746572
87.36371	5540.98	68.57239	-85.4095	3.734161
87.41782	5536.017	68.51563	-86.1932	3.715231
87.47192	5530.988	68.42969	-86.95258	3.689641
87.52603	5525.889	68.31112	-87.68826	3.657319
87.58014	5520.732	68.16003	-88.40086	3.618338
87.63424	5515.535	67.97868	-89.09106	3.572886
87.68835	5510.31	67.76664	-89.75954	3.5213
87.74245	5505.063	67.52319	-90.40701	3.464073
87.79656	5499.802	67.25095	-91.03414	3.401788
87.85067	5494.524	66.95628	-91.64166	3.335101
87.90478	5489.233	66.64801	-92.23026	3.264735
87.95889	5483.922	66.32642	-92.80058	3.191421
88.01299	5478.59	65.99424	-93.3532	3.11589
88.0671	5473.229	65.65303	-93.88869	3.038862
88.12121	5467.845	65.30326	-94.40752	2.96104
88.17532	5462.441	64.9426	-94.91016	2.883068
88.22942	5457.026	64.5658	-95.39701	2.805538
88.28352	5451.603	64.17158	-95.86844	2.728946
88.33763	5446.169	63.76455	-96.32478	2.653691
88.39174	5440.727	63.35742	-96.76632	2.580105
88.44585	5435.284	62.96402	-97.19336	2.508433
88.49995	5429.842	62.59611	-97.60621	2.438837
88.55406	5424.412	62.26866	-98.00523	2.371411
88.60817	5418.991	61.99031	-98.39076	2.306209
88.66228	5413.582	61.76639	-98.76319	2.243239
88.71638	5408.178	61.60357	-99.1229	2.1825
88.77049	5402.779	61.50523	-99.47026	2.123961
88.8246	5397.384	61.46664	-99.8056	2.067626
88.8787	5391.999	61.47402	-100.1293	2.0135
88.93281	5386.622	61.50745	-100.4416	1.961611
88.98692	5381.25	61.54515	-100.7431	1.91201
89.04102	5375.881	61.57451	-101.034	1.864754
89.09513	5370.515	61.59156	-101.3151	1.819931
89.14924	5365.148	61.59835	-101.587	1.777642
89.20335	5359.779	61.60436	-101.8503	1.73797
89.25745	5354.408	61.61656	-102.1057	1.700948
89.31156	5349.043	61.64291	-102.3541	1.666529
89.36567	5343.684	61.68392	-102.5962	1.634609
89.41978	5338.329	61.73611	-102.8329	1.605009
89.47388	5332.96	61.79931	-103.0651	1.577521
89.52798	5327.559	61.87645	-103.2937	1.551908
89.58209	5322.106	61.97247	-103.5196	1.527931
89.6362	5316.59	62.0882	-103.7437	1.505368
89.69031	5311.002	62.21376	-103.9668	1.484042
89.74442	5305.346	62.33254	-104.1898	1.463829
89.79852	5299.629	62.43323	-104.4134	1.444622
89.85263	5293.865	62.51433	-104.6383	1.426376
89.90674	5288.058	62.57565	-104.8652	1.409071
89.96085	5282.22	62.62218	-105.0946	1.392739
90.01495	5276.354	62.66143	-105.3269	1.377435
90.06906	5270.47	62.70164	-105.5623	1.363214
90.12316	5264.577	62.75179	-105.8012	1.350133
90.17727	5258.688	62.81931	-106.0436	1.338234
90.23138	5252.806	62.90626	-106.2895	1.32754
90.28548	5246.923	63.00684	-106.5388	1.318045
90.33959	5241.03	63.11532	-106.7912	1.30976
90.3937	5235.115	63.22327	-107.0466	1.302667
90.44781	5229.183	63.32479	-107.3046	1.296737
90.50191	5223.24	63.41481	-107.5648	1.291926
90.55602	5217.308	63.48769	-107.8268	1.288147
90.61013	5211.397	63.53622	-108.09	1.285282
90.66424	5205.517	63.55387	-108.3539	1.28318
90.71834	5199.666	63.53653	-108.6177	1.281674
90.77245	5193.844	63.48377	-108.881	1.280574
90.82655	5188.048	63.40308	-109.1428	1.279721
90.88066	5182.271	63.30264	-109.4025	1.278979
90.93477	5176.501	63.19074	-109.6594	1.278267
90.98888	5170.729	63.0709	-109.9127	1.277568
91.04298	5164.946	62.94498	-110.1619	1.276969
91.09709	5159.15	62.8112	-110.4063	1.276659
91.1512	5153.335	62.66316	-110.6454	1.276889
91.20531	5147.491	62.499	-110.8787	1.277993
91.25941	5141.609	62.32151	-111.1057	1.280328
91.31352	5135.69	62.13473	-111.3262	1.284249
91.36762	5129.734	61.93612	-111.5399	1.290114
91.42173	5123.742	61.72351	-111.7466	1.298217
91.47584	5117.717	61.49683	-111.9466	1.308801
91.52995	5111.665	61.26377	-112.1399	1.321997
91.58405	5105.571	61.03571	-112.327	1.337875
91.63816	5099.433	60.82535	-112.5083	1.356391
91.69227	5093.246	60.64385	-112.6842	1.377434
91.74638	5087.021	60.50198	-112.8551	1.400813
91.80048	5080.756	60.41439	-113.0216	1.426253
91.85459	5074.464	60.39124	-113.1841	1.453436
91.9087	5068.15	60.42437	-113.3432	1.482012
91.9628	5061.821	60.49494	-113.4992	1.511591
92.01691	5055.475	60.58482	-113.6526	1.541783
92.07101	5049.116	60.67981	-113.8036	1.572239
92.12512	5042.743	60.7692	-113.9526	1.602638
92.17923	5036.373	60.84167	-114.0996	1.63271
92.23334	5030.013	60.89116	-114.2449	1.662227
92.28745	5023.675	60.91776	-114.3885	1.690984
92.34155	5017.356	60.92548	-114.5304	1.718853
92.39566	5011.054	60.92394	-114.6705	1.745861
92.44977	5004.75	60.92893	-114.7739	1.778698
92.50388	4998.439	60.95524	-114.8756	1.81113
92.55798	4992.114	61.00709	-114.976	1.842829
92.61208	4985.771	61.08288	-115.0757	1.873719
92.66619	4979.408	61.17513	-115.1748	1.903879
92.7203	4973.036	61.27333	-115.2735	1.933449
92.77441	4966.663	61.35917	-115.3719	1.962628
92.82851	4960.303	61.40804	-115.4699	1.991587
92.88262	4953.961	61.40121	-115.5674	2.020499
92.93673	4947.638	61.33318	-115.6643	2.049518
92.99084	4941.329	61.20566	-115.7606	2.078764
93.04494	4935.031	61.02625	-115.8562	2.108366
93.09905	4928.745	60.8074	-115.951	2.138411
93.15316	4922.471	60.565	-116.0449	2.168991
93.20726	4916.205	60.31159	-116.138	2.200168
93.26137	4909.954	60.05878	-116.2301	2.232
93.31548	4903.711	59.81286	-116.3213	2.264528
93.36958	4897.477	59.57903	-116.4116	2.297793
93.42369	4891.242	59.36242	-116.5009	2.331813
93.4778	4885.017	59.16671	-116.5893	2.366599
93.53191	4878.795	58.99064	-116.6768	2.40215
93.58601	4872.581	58.82703	-116.7633	2.438465
93.64012	4866.368	58.6604	-116.849	2.475522
93.69423	4860.15	58.4688	-116.9337	2.51331
93.74834	4853.921	58.24318	-117.0176	2.551794
93.80244	4847.685	57.99295	-117.1007	2.590947
93.85654	4841.44	57.73244	-117.183	2.63073
93.91065	4835.18	57.47285	-117.2645	2.671107
93.96476	4828.888	57.2257	-117.3453	2.712046
94.01887	4822.553	57.00343	-117.4254	2.753498
94.07298	4816.168	56.82301	-117.5048	2.795418
94.12708	4809.596	56.7319	-117.5835	2.837775
94.18119	4803.041	56.68019	-117.6616	2.880518
94.2353	4796.512	56.64601	-117.7391	2.923616
94.28941	4790	56.61971	-117.8161	2.967022
94.34351	4783.5	56.59576	-117.8924	3.010702
94.39762	4777.003	56.57256	-117.9681	3.054621
94.45172	4770.509	56.54815	-118.0434	3.09874
94.50583	4764.012	56.52148	-118.1181	3.143029
94.55994	4757.511	56.49249	-118.1922	3.187459
94.61404	4751.003	56.46119	-118.2659	3.231997
94.66815	4744.488	56.42853	-118.3391	3.276619
94.72226	4737.964	56.3959	-118.4118	3.3213
94.77637	4731.43	56.36436	-118.4841	3.366014
94.83047	4724.886	56.33472	-118.556	3.410752
94.88458	4718.33	56.30868	-118.6274	3.455482
94.93869	4711.766	56.28671	-118.6984	3.500193
94.9928	4705.196	56.26975	-118.769	3.544874
