T[Â°C]	350nm [counts / mm]	S.D.	First derivative	S.D. of first derivative
20.00049	4362.979	33.93948	-66.89753	2.921791
20.0546	4359.434	33.91189	-66.79966	2.878827
20.1087	4355.89	33.88773	-66.7017	2.835559
20.16281	4352.348	33.86797	-66.60365	2.791983
20.21692	4348.807	33.85243	-66.50552	2.748099
20.27102	4345.267	33.84119	-66.40732	2.703911
20.32513	4341.728	33.83402	-66.30907	2.65943
20.37924	4338.19	33.83026	-66.21076	2.614651
20.43335	4334.652	33.82856	-66.11243	2.569593
20.48745	4331.115	33.8273	-66.01408	2.524266
20.54156	4327.576	33.824	-65.91573	2.47868
20.59567	4324.037	33.81651	-65.81741	2.432855
20.64977	4320.497	33.80257	-65.71911	2.386802
20.70388	4316.955	33.78066	-65.62087	2.340548
20.75799	4313.41	33.74788	-65.5227	2.294104
20.8121	4309.864	33.70242	-65.42462	2.247506
20.8662	4306.318	33.64411	-65.32664	2.200768
20.92031	4302.774	33.58081	-65.22881	2.153928
20.97442	4299.24	33.48602	-65.1311	2.107009
21.02852	4295.705	33.38866	-65.03355	2.060044
21.08263	4292.161	33.29781	-64.93618	2.01307
21.13674	4288.605	33.21762	-64.83898	1.966114
21.19084	4285.041	33.14733	-64.74199	1.919222
21.24495	4281.473	33.0833	-64.64519	1.872431
21.29906	4277.906	33.01796	-64.54859	1.825785
21.35316	4274.342	32.94298	-64.4522	1.779329
21.40727	4270.786	32.84801	-64.35603	1.733111
21.46138	4267.241	32.72492	-64.26004	1.687186
21.51549	4263.712	32.56631	-64.16427	1.641616
21.56959	4260.199	32.37068	-64.06868	1.59645
21.6237	4256.709	32.14353	-63.97327	1.551768
21.67781	4253.243	31.8906	-63.87803	1.50763
21.73191	4249.799	31.6237	-63.78294	1.464104
21.78602	4246.371	31.35932	-63.68798	1.421255
21.84013	4242.957	31.11403	-63.59312	1.379152
21.89424	4239.56	30.89651	-63.49833	1.337856
21.94834	4236.177	30.71173	-63.40356	1.297422
22.00245	4232.807	30.56123	-63.30877	1.2579
22.05656	4229.448	30.43893	-63.2139	1.219326
22.11066	4226.097	30.33381	-63.11887	1.181722
22.16477	4222.754	30.23784	-63.02361	1.145083
22.21888	4219.415	30.14674	-62.92798	1.109382
22.27298	4216.075	30.06553	-62.83187	1.074551
22.32709	4212.733	29.99562	-62.73508	1.040477
22.3812	4209.386	29.93494	-62.63742	1.006993
22.4353	4206.031	29.88044	-62.53864	0.9738671
22.48941	4202.675	29.83492	-62.43847	0.9408169
22.54352	4199.322	29.80523	-62.3367	0.9075481
22.59763	4195.977	29.80079	-62.23331	0.8738555
22.65173	4192.636	29.8247	-62.14197	0.8690932
22.70584	4189.297	29.87419	-62.05156	0.8675376
22.75995	4185.96	29.94758	-61.96214	0.8689227
22.81405	4182.622	30.04372	-61.87382	0.8729773
22.86816	4179.276	30.15591	-61.78667	0.8794196
22.92227	4175.917	30.27495	-61.70077	0.887953
22.97638	4172.545	30.39122	-61.61619	0.8982591
23.03048	4169.164	30.49797	-61.533	0.910006
23.08459	4165.779	30.59297	-61.4513	0.9228228
23.1387	4162.397	30.67955	-61.37119	0.9363476
23.1928	4159.03	30.76219	-61.29277	0.9502023
23.24691	4155.685	30.84809	-61.2162	0.9640345
23.30102	4152.368	30.94342	-61.1416	0.9775252
23.35512	4149.085	31.05133	-61.06914	0.9903941
23.40923	4145.84	31.17424	-60.99895	1.002414
23.46334	4142.634	31.3081	-60.93116	1.013422
23.51744	4139.461	31.44457	-60.86587	1.023306
23.57155	4136.313	31.5781	-60.80316	1.031994
23.62566	4133.176	31.70366	-60.74311	1.039449
23.67977	4130.036	31.80928	-60.68579	1.045651
23.73387	4126.874	31.87958	-60.63126	1.050608
23.78798	4123.676	31.90516	-60.57958	1.054348
23.84209	4120.437	31.87667	-60.53083	1.056942
23.89619	4117.157	31.79278	-60.48506	1.058475
23.9503	4113.846	31.66027	-60.44227	1.059073
24.00441	4110.516	31.49045	-60.40247	1.058872
24.05852	4107.18	31.29176	-60.36562	1.058027
24.11262	4103.85	31.07404	-60.33166	1.056693
24.16673	4100.537	30.84764	-60.30051	1.055023
24.22084	4097.248	30.62951	-60.27206	1.053187
24.27494	4093.987	30.43669	-60.24618	1.051371
24.32905	4090.747	30.27855	-60.2227	1.049769
24.38316	4087.516	30.1487	-60.20144	1.048584
24.43726	4084.282	30.03558	-60.18219	1.047999
24.49137	4081.035	29.92486	-60.16477	1.048171
24.54548	4077.771	29.8022	-60.14899	1.049231
24.59958	4074.489	29.65355	-60.13465	1.051237
24.65369	4071.191	29.46482	-60.12156	1.054188
24.7078	4067.887	29.23206	-60.10952	1.057968
24.76191	4064.587	28.96136	-60.09838	1.062381
24.81601	4061.306	28.66362	-60.08797	1.067142
24.87012	4058.056	28.35442	-60.07816	1.071903
24.92423	4054.843	28.05231	-60.0688	1.076247
24.97833	4051.669	27.77193	-60.05978	1.079711
25.03244	4048.53	27.5228	-60.051	1.081826
25.08655	4045.423	27.30896	-60.0424	1.082134
25.14066	4042.341	27.13155	-60.03394	1.08021
25.19476	4039.273	26.99459	-60.02558	1.075648
25.24887	4036.201	26.90631	-60.01733	1.068084
25.30298	4033.106	26.86602	-60.00919	1.057185
25.35708	4029.976	26.86127	-60.00112	1.042693
25.41119	4026.805	26.87287	-59.99308	1.024408
25.4653	4023.595	26.8829	-59.98502	1.002189
25.5194	4020.353	26.87822	-59.97687	0.9759466
25.57351	4017.086	26.85182	-59.96859	0.9456847
25.62762	4013.8	26.80599	-59.96017	0.9114891
25.68172	4010.502	26.74819	-59.95161	0.8735335
25.73583	4007.197	26.69195	-59.94299	0.8320979
25.78994	4003.888	26.64939	-59.93435	0.7875555
25.84405	4000.573	26.63567	-59.9258	0.7403602
25.89815	3997.25	26.66471	-59.91739	0.6910321
25.95226	3993.922	26.74217	-59.90919	0.640129
26.00637	3990.591	26.86949	-59.90124	0.5882509
26.06047	3987.256	27.04112	-59.89354	0.5360675
26.11458	3983.918	27.24453	-59.88606	0.4843342
26.16869	3980.576	27.46321	-59.87872	0.4339433
26.2228	3977.234	27.67892	-59.8714	0.3859152
26.2769	3973.895	27.87734	-59.86394	0.3413984
26.33101	3970.557	28.04525	-59.85617	0.3016441
26.38512	3967.22	28.1747	-59.84792	0.2679044
26.43922	3963.889	28.26632	-59.83904	0.241199
26.49333	3960.573	28.32473	-59.82938	0.2219898
26.54744	3957.282	28.35743	-59.81876	0.2098697
26.60155	3954.024	28.36896	-59.80705	0.2034822
26.65565	3950.802	28.36143	-59.79407	0.2008307
26.70976	3947.614	28.33571	-59.77967	0.1997836
26.76386	3944.452	28.28873	-59.76367	0.198452
26.81797	3941.309	28.21831	-59.74594	0.195396
26.87208	3938.179	28.12612	-59.72633	0.1896368
26.92619	3935.052	28.01939	-59.7047	0.1806262
26.98029	3931.914	27.90734	-59.68095	0.1681483
27.0344	3928.755	27.79783	-59.65504	0.1522725
27.08851	3925.57	27.69743	-59.62691	0.1333398
27.14261	3922.363	27.61079	-59.5966	0.1120831
27.19672	3919.14	27.54584	-59.56411	0.08991892
27.25083	3915.906	27.51345	-59.5295	0.06987564
27.30494	3912.659	27.52308	-59.49281	0.05843081
27.35904	3909.403	27.57788	-59.45413	0.06346159
27.41315	3906.145	27.67444	-59.41356	0.0832224
27.46726	3902.891	27.8055	-59.37125	0.1102466
27.52136	3899.646	27.95979	-59.32738	0.1399687
27.57547	3896.408	28.12459	-59.2822	0.1702021
27.62958	3893.18	28.28596	-59.23599	0.1997259
27.68369	3889.961	28.43761	-59.18907	0.2277625
27.73779	3886.751	28.5758	-59.14178	0.2537528
27.7919	3883.544	28.70074	-59.09445	0.277308
27.84601	3880.334	28.81539	-59.04742	0.2981776
27.90011	3877.117	28.91461	-59.00101	0.3162189
27.95422	3873.893	28.99505	-58.95551	0.3313813
28.00833	3870.661	29.05832	-58.91121	0.3437122
28.06243	3867.425	29.10854	-58.86835	0.3533315
28.11654	3864.188	29.14763	-58.82713	0.3604245
28.17065	3860.956	29.17231	-58.78767	0.3652206
28.22475	3857.734	29.177	-58.75008	0.3679927
28.27886	3854.526	29.15291	-58.71441	0.3690361
28.33297	3851.337	29.08766	-58.68069	0.3686771
28.38708	3848.167	28.97331	-58.6489	0.367247
28.44118	3845.017	28.8058	-58.61901	0.3650773
28.49529	3841.884	28.58626	-58.59095	0.3625133
28.5494	3838.766	28.32241	-58.56464	0.3598956
28.6035	3835.657	28.02792	-58.53995	0.3575757
28.65761	3832.555	27.71865	-58.51675	0.3559189
28.71172	3829.456	27.40843	-58.49484	0.3552828
28.76583	3826.355	27.11067	-58.47408	0.3559843
28.81993	3823.246	26.83372	-58.45427	0.3582786
28.87404	3820.128	26.58405	-58.43525	0.362337
28.92815	3817	26.37105	-58.41685	0.3682464
28.98225	3813.863	26.20414	-58.39894	0.3760034
29.03636	3810.722	26.08908	-58.38139	0.3855116
29.09047	3807.582	26.02603	-58.36411	0.3966055
29.14457	3804.449	26.00721	-58.34703	0.4090459
29.19868	3801.328	26.01951	-58.33011	0.4225357
29.25279	3798.222	26.05186	-58.31334	0.4367373
29.30689	3795.128	26.09979	-58.2967	0.4513091
29.361	3792.04	26.16864	-58.28023	0.4659003
29.41511	3788.954	26.26203	-58.26398	0.4801849
29.46922	3785.868	26.38035	-58.24801	0.4938492
29.52332	3782.78	26.51909	-58.23237	0.5066295
29.57743	3779.691	26.66919	-58.2171	0.518285
29.63154	3776.597	26.8226	-58.20225	0.5286255
29.68564	3773.493	26.97163	-58.18783	0.537496
29.73975	3770.375	27.11136	-58.17385	0.5447807
29.79386	3767.241	27.2384	-58.16029	0.5504137
29.84797	3764.09	27.34497	-58.14712	0.5543668
29.90207	3760.923	27.42276	-58.13431	0.5566435
29.95618	3757.743	27.46722	-58.12182	0.557288
30.01029	3754.552	27.48323	-58.10961	0.5563672
30.06439	3751.356	27.47895	-58.09763	0.5539854
30.1185	3748.16	27.46407	-58.08584	0.5502758
30.17261	3744.965	27.45024	-58.07419	0.545388
30.22671	3741.771	27.44814	-58.06263	0.539508
30.28082	3738.582	27.45965	-58.0511	0.5328472
30.33493	3735.399	27.47876	-58.03953	0.5256186
30.38903	3732.226	27.49888	-58.02785	0.5180158
30.44314	3729.059	27.5123	-58.01601	0.5102075
30.49725	3725.897	27.51564	-58.00392	0.502338
30.55136	3722.734	27.50407	-57.99147	0.4945454
30.60546	3719.57	27.47379	-57.97854	0.4869511
30.65957	3716.404	27.42504	-57.96498	0.4796567
30.71368	3713.238	27.36409	-57.95067	0.4727474
30.76778	3710.073	27.29752	-57.93547	0.4662736
30.82189	3706.909	27.22387	-57.9193	0.4603019
30.876	3703.746	27.1408	-57.90204	0.4549102
30.93011	3700.583	27.05232	-57.88364	0.4502221
30.98421	3697.42	26.96317	-57.86403	0.446411
31.03832	3694.257	26.87919	-57.84318	0.4437075
31.09243	3691.099	26.80593	-57.82109	0.4423555
31.14653	3687.951	26.74498	-57.79777	0.4425761
31.20064	3684.817	26.69242	-57.77326	0.444521
31.25475	3681.697	26.64307	-57.7476	0.4482172
31.30885	3678.586	26.60047	-57.72085	0.4535543
31.36296	3675.48	26.56981	-57.69305	0.4602704
31.41707	3672.373	26.55508	-57.66426	0.4679658
31.47117	3669.26	26.55641	-57.63448	0.476147
31.52528	3666.14	26.56958	-57.60372	0.4842752
31.57939	3663.01	26.58648	-57.57198	0.4918331
31.6335	3659.87	26.59671	-57.53925	0.4983514
31.6876	3656.721	26.59209	-57.50553	0.5034268
31.74171	3653.566	26.572	-57.47082	0.5067342
31.79582	3650.411	26.53534	-57.4351	0.5080335
31.84992	3647.261	26.48396	-57.39837	0.5071779
31.90403	3644.118	26.4216	-57.3606	0.5041158
31.95814	3640.984	26.35487	-57.32177	0.4988832
32.01225	3637.864	26.29268	-57.28186	0.4915738
32.06635	3634.762	26.23834	-57.24086	0.482359
32.12046	3631.68	26.19156	-57.19878	0.4714465
32.17456	3628.614	26.15396	-57.15565	0.4591076
32.22867	3625.561	26.1281	-57.11151	0.4456586
32.28278	3622.517	26.11479	-57.06639	0.4314617
32.33689	3619.478	26.11225	-57.02038	0.4168979
32.391	3616.44	26.11478	-56.97351	0.4023749
32.4451	3613.398	26.11856	-56.92588	0.3883019
32.49921	3610.354	26.11874	-56.87753	0.3751013
32.55331	3607.31	26.10612	-56.82854	0.3631807
32.60742	3604.269	26.07269	-56.779	0.3529088
32.66153	3601.228	26.01095	-56.72905	0.3445398
32.71564	3598.188	25.9198	-56.67884	0.3381906
32.76974	3595.151	25.80357	-56.62855	0.3338104
32.82385	3592.116	25.67292	-56.57835	0.3311936
32.87796	3589.083	25.54633	-56.52844	0.3300053
32.93206	3586.051	25.44407	-56.47902	0.329838
32.98617	3583.016	25.37894	-56.43027	0.3302931
33.04028	3579.975	25.35685	-56.38239	0.3310336
33.09438	3576.931	25.37535	-56.33556	0.3318142
33.14849	3573.887	25.42485	-56.28996	0.3325113
33.2026	3570.84	25.49048	-56.24576	0.3331307
33.25671	3567.785	25.56169	-56.20315	0.3338081
33.31081	3564.714	25.63096	-56.16228	0.3347676
33.36492	3561.628	25.68944	-56.12328	0.3363155
33.41903	3558.53	25.73218	-56.08629	0.3387759
33.47313	3555.426	25.75828	-56.05143	0.3424675
33.52724	3552.327	25.77102	-56.01881	0.3476562
33.58135	3549.236	25.77442	-55.98853	0.3545305
33.63546	3546.155	25.77581	-55.96066	0.3631593
33.68956	3543.086	25.78481	-55.93528	0.3734883
33.74367	3540.03	25.80691	-55.91242	0.3853386
33.79778	3536.989	25.84304	-55.89206	0.3984295
33.85188	3533.963	25.88928	-55.87415	0.4124487
33.90599	3530.952	25.94324	-55.85852	0.4270641
33.9601	3527.953	26.00626	-55.84502	0.4419553
34.0142	3524.962	26.08293	-55.8334	0.4568237
34.06831	3521.977	26.17308	-55.82343	0.4714089
34.12242	3518.997	26.27089	-55.81483	0.4854866
34.17653	3516.021	26.37061	-55.80729	0.4988884
34.23063	3513.05	26.46782	-55.80048	0.5114835
34.28474	3510.084	26.56015	-55.79407	0.5231976
34.33884	3507.122	26.64593	-55.78771	0.5339776
34.39295	3504.167	26.72048	-55.78106	0.5438216
34.44706	3501.219	26.78156	-55.77378	0.5527622
34.50117	3498.28	26.83124	-55.76558	0.5608793
34.55527	3495.35	26.87225	-55.75617	0.5682905
34.60938	3492.424	26.90811	-55.74533	0.5751432
34.66349	3489.498	26.94113	-55.73286	0.5816052
34.71759	3486.57	26.96844	-55.7186	0.5878614
34.7717	3483.637	26.98054	-55.70241	0.5941167
34.82581	3480.698	26.97117	-55.68422	0.6005785
34.87992	3477.751	26.9378	-55.66396	0.6074827
34.93402	3474.791	26.8784	-55.64166	0.6150954
34.98813	3471.815	26.79053	-55.61736	0.6237139
35.04224	3468.825	26.66987	-55.59119	0.6336299
35.09634	3465.822	26.51463	-55.5633	0.6451321
35.15045	3462.806	26.3226	-55.53393	0.6584412
35.20456	3459.78	26.09647	-55.50331	0.6737163
35.25866	3456.744	25.8454	-55.47171	0.6910074
35.31277	3453.702	25.58171	-55.43945	0.7102618
35.36688	3450.66	25.319	-55.40685	0.7312911
35.42099	3447.617	25.06927	-55.37427	0.7538024
35.47509	3444.573	24.83776	-55.34208	0.7773812
35.5292	3441.526	24.6244	-55.31067	0.8014919
35.58331	3438.473	24.42779	-55.28039	0.825516
35.63741	3435.416	24.24515	-55.25162	0.8487713
35.69152	3432.356	24.07802	-55.2247	0.8705769
35.74563	3429.289	23.93156	-55.19994	0.8902724
35.79974	3426.212	23.80746	-55.17754	0.9072796
35.85384	3423.122	23.70508	-55.15769	0.9211158
35.90795	3420.017	23.62143	-55.14047	0.9313939
35.96206	3416.901	23.55767	-55.12593	0.9378161
36.01616	3413.779	23.51754	-55.11407	0.9401727
36.07027	3410.659	23.50629	-55.1048	0.9383464
36.12438	3407.552	23.52704	-55.09803	0.9323039
36.17848	3404.463	23.57794	-55.09355	0.9220892
36.23259	3401.393	23.6565	-55.09115	0.9078148
36.2867	3398.341	23.76234	-55.09053	0.8896621
36.34081	3395.31	23.88961	-55.09138	0.8678516
36.39491	3392.301	24.02596	-55.09333	0.8426648
36.44902	3389.317	24.16112	-55.09601	0.8144156
36.50312	3386.362	24.28291	-55.099	0.7834514
36.55723	3383.433	24.3803	-55.10188	0.7501543
36.61134	3380.529	24.44448	-55.1042	0.7149378
36.66545	3377.642	24.46786	-55.1055	0.6782534
36.71955	3374.766	24.44538	-55.10532	0.6405982
36.77366	3371.894	24.37753	-55.10322	0.602542
36.82777	3369.021	24.27127	-55.09879	0.5647107
36.88187	3366.147	24.14115	-55.09167	0.5278041
36.93598	3363.271	24.00522	-55.08155	0.4925649
36.99009	3360.402	23.8764	-55.06818	0.4597813
37.0442	3357.544	23.76445	-55.05141	0.43026
37.0983	3354.704	23.67375	-55.03113	0.4047952
37.15241	3351.882	23.60392	-55.00731	0.384082
37.20652	3349.075	23.54989	-54.97993	0.368665
37.26062	3346.281	23.50338	-54.94905	0.3588233
37.31473	3343.492	23.46102	-54.91478	0.3545298
37.36884	3340.697	23.42493	-54.87728	0.3554358
37.42294	3337.887	23.39664	-54.83677	0.3609505
37.47705	3335.053	23.37678	-54.79353	0.370339
37.53116	3332.184	23.36519	-54.74784	0.3828394
37.58527	3329.27	23.36076	-54.70005	0.3977174
37.63937	3326.31	23.36104	-54.6505	0.4143192
37.69348	3323.306	23.36749	-54.59951	0.4320715
37.74759	3320.268	23.38457	-54.54743	0.4504841
37.80169	3317.205	23.41905	-54.4946	0.4691094
37.8558	3314.123	23.47912	-54.44136	0.4875302
37.90991	3311.025	23.56796	-54.38805	0.5053365
37.96402	3307.914	23.68131	-54.335	0.522132
38.01812	3304.796	23.8141	-54.28249	0.537542
38.07223	3301.679	23.95832	-54.23081	0.5512099
38.12634	3298.57	24.10437	-54.18016	0.5628036
38.18044	3295.471	24.24359	-54.1307	0.5720325
38.23455	3292.38	24.37024	-54.08252	0.5786638
38.28866	3289.295	24.479	-54.03567	0.5825235
38.34276	3286.213	24.56087	-53.99015	0.5835124
38.39687	3283.135	24.60777	-53.94592	0.5815811
38.45098	3280.062	24.61394	-53.9029	0.5767674
38.50508	3276.996	24.57944	-53.86095	0.5691813
38.55919	3273.939	24.505	-53.81992	0.5590085
38.6133	3270.891	24.39245	-53.77962	0.5464965
38.6674	3267.86	24.24868	-53.73985	0.5319411
38.72151	3264.849	24.08631	-53.7004	0.5156704
38.77562	3261.867	23.91867	-53.66106	0.4980328
38.82973	3258.92	23.75739	-53.62163	0.4794037
38.88383	3256.012	23.60745	-53.58195	0.460137
38.93794	3253.139	23.46908	-53.54189	0.4405655
38.99205	3250.295	23.34149	-53.50135	0.4209674
39.04615	3247.476	23.22453	-53.46026	0.4015846
39.10026	3244.674	23.11917	-53.41854	0.3826158
39.15437	3241.887	23.02631	-53.37619	0.3642221
39.20848	3239.113	22.94351	-53.33318	0.3465412
39.26258	3236.349	22.86579	-53.28953	0.3296909
39.31669	3233.589	22.787	-53.2453	0.3137715
39.3708	3230.83	22.70049	-53.20058	0.2988958
39.4249	3228.072	22.60326	-53.15548	0.2851761
39.47901	3225.313	22.49798	-53.11012	0.2727384
39.53312	3222.553	22.3923	-53.06466	0.2617145
39.58722	3219.787	22.29631	-53.01927	0.2522357
39.64133	3217.011	22.22037	-52.97418	0.244432
39.69544	3214.226	22.17016	-52.92961	0.2384119
39.74955	3211.438	22.14366	-52.88583	0.2342488
39.80365	3208.652	22.13612	-52.84312	0.2319675
39.85776	3205.875	22.14366	-52.80178	0.2315555
39.91187	3203.104	22.16449	-52.76208	0.2329554
39.96597	3200.338	22.20273	-52.72428	0.2360887
40.02008	3197.574	22.25937	-52.68857	0.2408236
40.07419	3194.81	22.32994	-52.65512	0.2470134
40.1283	3192.042	22.4077	-52.62405	0.2545096
40.1824	3189.266	22.48652	-52.59543	0.2631663
40.23651	3186.479	22.56001	-52.56929	0.2728555
40.29062	3183.677	22.62461	-52.5456	0.2834515
40.34472	3180.857	22.68071	-52.52431	0.29485
40.39883	3178.024	22.7329	-52.50531	0.3069758
40.45294	3175.181	22.7887	-52.48847	0.3197957
40.50705	3172.336	22.84938	-52.47361	0.3333247
40.56115	3169.494	22.90925	-52.46054	0.3476169
40.61526	3166.661	22.96219	-52.44908	0.3627563
40.66936	3163.842	23.00078	-52.43902	0.3788504
40.72347	3161.035	23.02506	-52.43017	0.3960046
40.77758	3158.239	23.04051	-52.42236	0.4143111
40.83168	3155.45	23.05719	-52.41543	0.4338453
40.88579	3152.66	23.08722	-52.40925	0.4546332
40.9399	3149.861	23.13923	-52.4037	0.4766515
40.99401	3147.048	23.21589	-52.39865	0.499858
41.04811	3144.218	23.31049	-52.39396	0.5241494
41.10222	3141.369	23.41389	-52.38947	0.549392
41.15633	3138.504	23.51723	-52.38503	0.5754086
41.21043	3135.625	23.61112	-52.38049	0.6020111
41.26454	3132.731	23.68813	-52.37568	0.6290224
41.31865	3129.823	23.74281	-52.37045	0.6562665
41.37276	3126.901	23.77135	-52.36465	0.6835733
41.42686	3123.969	23.77181	-52.35813	0.710774
41.48097	3121.032	23.74323	-52.35074	0.7376978
41.53508	3118.095	23.68752	-52.34233	0.7641729
41.58918	3115.16	23.61188	-52.3328	0.7900197
41.64329	3112.228	23.52811	-52.32204	0.8150601
41.6974	3109.293	23.44453	-52.31	0.8391161
41.75151	3106.356	23.36456	-52.29659	0.8620356
41.80561	3103.417	23.28539	-52.28173	0.8836774
41.85972	3100.478	23.20047	-52.26532	0.9039023
41.91383	3097.538	23.10636	-52.24725	0.9225726
41.96793	3094.603	23.00002	-52.22739	0.9395277
42.02204	3091.677	22.87672	-52.20565	0.9545967
42.07615	3088.765	22.7312	-52.18195	0.9675876
42.13025	3085.869	22.5617	-52.15619	0.9782998
42.18436	3082.99	22.37067	-52.12831	0.9865254
42.23847	3080.131	22.16136	-52.09823	0.9920783
42.29258	3077.295	21.93682	-52.06591	0.9948072
42.34668	3074.481	21.69963	-52.0313	0.9946119
42.40079	3071.69	21.45618	-51.99438	0.9914521
42.4549	3068.919	21.21653	-51.95515	0.9853448
42.509	3066.165	20.98823	-51.9136	0.9763563
42.56311	3063.421	20.78254	-51.86975	0.9645897
42.61722	3060.683	20.6077	-51.82366	0.9501793
42.67133	3057.951	20.46672	-51.77542	0.933241
42.72543	3055.227	20.35477	-51.72517	0.9139121
42.77954	3052.514	20.26243	-51.67304	0.8923286
42.83364	3049.813	20.17825	-51.61922	0.868634
42.88775	3047.121	20.09265	-51.56395	0.8429956
42.94186	3044.433	20.00018	-51.50746	0.8155819
42.99596	3041.74	19.89725	-51.45002	0.7865872
43.05007	3039.036	19.7878	-51.39188	0.7562203
43.10418	3036.318	19.68406	-51.33334	0.7247233
43.15829	3033.586	19.5969	-51.27469	0.6923947
43.21239	3030.841	19.53325	-51.21622	0.6595936
43.2665	3028.081	19.49937	-51.15825	0.6267295
43.32061	3025.307	19.49891	-51.10108	0.5942429
43.37471	3022.518	19.53138	-51.04499	0.5625592
43.42882	3019.712	19.5899	-50.99025	0.5320746
43.48293	3016.892	19.66268	-50.93708	0.5031202
43.53704	3014.068	19.73556	-50.88569	0.4759688
43.59114	3011.254	19.79959	-50.83625	0.4507849
43.64525	3008.456	19.84863	-50.78891	0.4276266
43.69936	3005.675	19.87909	-50.74376	0.4064239
43.75346	3002.908	19.88755	-50.70081	0.3870016
43.80757	3000.151	19.8758	-50.66005	0.3690556
43.86168	2997.399	19.8551	-50.62138	0.3522035
43.91579	2994.651	19.84043	-50.58468	0.3360033
43.96989	2991.907	19.84414	-50.5498	0.3200104
44.024	2989.171	19.87411	-50.51659	0.3037993
44.07811	2986.442	19.93194	-50.48488	0.2870089
44.13221	2983.719	20.01864	-50.4545	0.2693416
44.18632	2981	20.13421	-50.42527	0.2506068
44.24043	2978.288	20.27796	-50.39703	0.2307118
44.29453	2975.589	20.44246	-50.3696	0.2096681
44.34864	2972.906	20.61829	-50.3428	0.1875987
44.40275	2970.243	20.79662	-50.31648	0.164749
44.45686	2967.601	20.96916	-50.29048	0.1415345
44.51096	2964.976	21.13021	-50.26467	0.1186373
44.56507	2962.358	21.27649	-50.23892	0.09724845
44.61917	2959.737	21.40605	-50.21313	0.07958387
44.67328	2957.107	21.51609	-50.18717	0.06943461
44.72739	2954.463	21.60884	-50.16092	0.0707374
44.7815	2951.801	21.68742	-50.13429	0.08325934
44.83561	2949.123	21.75706	-50.10718	0.1030935
44.88971	2946.431	21.8223	-50.07951	0.1268318
44.94382	2943.724	21.88379	-50.05126	0.1525533
44.99792	2940.999	21.94107	-50.0224	0.179235
45.05203	2938.257	21.99283	-49.99297	0.2063058
45.10614	2935.505	22.03576	-49.96303	0.233423
45.16025	2932.75	22.0669	-49.93265	0.2604052
45.21435	2929.996	22.08416	-49.90195	0.2871686
45.26846	2927.247	22.08566	-49.87103	0.3137019
45.32257	2924.503	22.06987	-49.84001	0.3400493
45.37667	2921.764	22.03397	-49.80902	0.3662962
45.43078	2919.021	21.976	-49.77819	0.3925583
45.48489	2916.272	21.89585	-49.74763	0.4189391
45.53899	2913.519	21.79637	-49.71743	0.4455281
45.5931	2910.768	21.67998	-49.68769	0.4723658
45.64721	2908.021	21.54703	-49.65845	0.4994341
45.70132	2905.281	21.39218	-49.62974	0.5266491
45.75542	2902.551	21.20981	-49.60154	0.553838
45.80953	2899.83	20.99918	-49.57381	0.5807376
45.86364	2897.118	20.76628	-49.54648	0.6070177
45.91774	2894.412	20.52308	-49.51947	0.6322954
45.97185	2891.714	20.28271	-49.49268	0.6561555
46.02596	2889.032	20.05705	-49.46603	0.678154
46.08007	2886.365	19.85417	-49.43947	0.6978663
46.13417	2883.708	19.67934	-49.41291	0.7148986
46.18828	2881.061	19.53716	-49.38627	0.7289212
46.24239	2878.42	19.42538	-49.35944	0.7396572
46.29649	2875.787	19.33551	-49.33229	0.7468971
46.3506	2873.158	19.25934	-49.3047	0.7505143
46.40471	2870.535	19.18965	-49.27655	0.750453
46.45881	2867.918	19.11843	-49.24773	0.7467715
46.51292	2865.302	19.039	-49.21819	0.7395912
46.56703	2862.682	18.95071	-49.18784	0.729134
46.62114	2860.054	18.85925	-49.15664	0.7156988
46.67524	2857.417	18.77276	-49.12457	0.6996735
46.72935	2854.771	18.69786	-49.09159	0.6815206
46.78345	2852.116	18.63923	-49.05772	0.6617895
46.83756	2849.456	18.59942	-49.02298	0.6411042
46.89167	2846.798	18.57968	-48.9874	0.6201652
46.94578	2844.144	18.58135	-48.95108	0.5997424
46.99989	2841.491	18.60638	-48.9141	0.5806456
47.05399	2838.841	18.65147	-48.87659	0.5636734
47.1081	2836.194	18.71162	-48.83865	0.5495459
47.1622	2833.553	18.77887	-48.80037	0.5388179
47.21631	2830.915	18.84591	-48.76191	0.531803
47.27042	2828.282	18.90767	-48.72337	0.5285601
47.32453	2825.654	18.95838	-48.6849	0.528888
47.37863	2823.028	18.99019	-48.64664	0.5323726
47.43274	2820.403	18.99739	-48.60874	0.53845
47.48685	2817.776	18.982	-48.57134	0.5464898
47.54095	2815.142	18.95127	-48.53457	0.5558497
47.59506	2812.498	18.91375	-48.49857	0.5659328
47.64917	2809.845	18.87483	-48.46344	0.5762088
47.70327	2807.192	18.83795	-48.42931	0.5862378
47.75738	2804.546	18.80431	-48.39627	0.5956588
47.81149	2801.917	18.77567	-48.36443	0.604205
47.8656	2799.305	18.75571	-48.33389	0.6116863
47.9197	2796.709	18.74713	-48.30476	0.6179862
47.97381	2794.128	18.7548	-48.27715	0.6230543
48.02792	2791.555	18.78122	-48.25114	0.6268924
48.08202	2788.986	18.82493	-48.22682	0.6295306
48.13613	2786.413	18.88645	-48.20425	0.6310255
48.19024	2783.834	18.96711	-48.18343	0.6314547
48.24435	2781.25	19.06678	-48.16434	0.6309001
48.29845	2778.658	19.18547	-48.14689	0.6294386
48.35256	2776.056	19.32248	-48.13095	0.6271251
48.40667	2773.444	19.47283	-48.11638	0.623967
48.46077	2770.821	19.62995	-48.10298	0.6199287
48.51488	2768.185	19.78826	-48.09056	0.6149395
48.56899	2765.541	19.94245	-48.07891	0.6088982
48.62309	2762.894	20.09001	-48.06785	0.6016998
48.6772	2760.252	20.22731	-48.05718	0.593275
48.73131	2757.619	20.34997	-48.04672	0.5835731
48.78542	2755.001	20.45734	-48.03629	0.5725859
48.83952	2752.401	20.54815	-48.02574	0.5603235
48.89363	2749.822	20.62108	-48.01492	0.5468204
48.94773	2747.263	20.67583	-48.0037	0.5321424
49.00184	2744.718	20.71648	-47.99191	0.5163817
49.05595	2742.181	20.74367	-47.97941	0.4996756
49.11006	2739.648	20.75634	-47.96604	0.4822174
49.16417	2737.111	20.75186	-47.95166	0.4642594
49.21827	2734.567	20.72754	-47.93614	0.4461005
49.27238	2732.015	20.68184	-47.91938	0.4280886
49.32648	2729.454	20.61222	-47.90129	0.4106534
49.38059	2726.89	20.51349	-47.88182	0.3942796
49.4347	2724.33	20.38207	-47.86093	0.3795158
49.48881	2721.776	20.21832	-47.8386	0.3669397
49.54291	2719.227	20.02627	-47.81485	0.3571418
49.59702	2716.68	19.81515	-47.78969	0.350674
49.65113	2714.135	19.59794	-47.7632	0.347977
49.70523	2711.59	19.38569	-47.73547	0.3493249
49.75934	2709.042	19.1859	-47.70664	0.3547898
49.81345	2706.491	19.00358	-47.67686	0.3642187
49.86755	2703.934	18.8419	-47.6463	0.3772642
49.92166	2701.369	18.70405	-47.61514	0.3934183
49.97577	2698.792	18.59086	-47.58356	0.4120814
50.02988	2696.198	18.50263	-47.55174	0.4325782
50.08398	2693.585	18.43928	-47.51984	0.454217
50.13809	2690.948	18.40009	-47.48802	0.4763188
50.1922	2688.291	18.38258	-47.4564	0.4982401
50.2463	2685.614	18.38447	-47.42513	0.519398
50.30041	2682.927	18.40212	-47.39429	0.5392907
50.35452	2680.236	18.42905	-47.36399	0.5575125
50.40863	2677.545	18.45999	-47.33425	0.5737739
50.46273	2674.861	18.49415	-47.30509	0.5879028
50.51684	2672.186	18.53448	-47.27651	0.599834
50.57095	2669.524	18.58695	-47.24849	0.6096009
50.62505	2666.876	18.65595	-47.221	0.6173179
50.67916	2664.242	18.73846	-47.19399	0.6231701
50.73327	2661.623	18.82963	-47.16741	0.627404
50.78737	2659.019	18.92098	-47.14118	0.6303065
50.84148	2656.434	19.00041	-47.1152	0.6321823
50.89559	2653.875	19.05671	-47.08932	0.6333531
50.9497	2651.339	19.08381	-47.06338	0.6341098
51.0038	2648.822	19.07678	-47.03717	0.6347271
51.05791	2646.317	19.0339	-47.01049	0.6354403
51.11201	2643.819	18.95689	-46.9831	0.6364672
51.16612	2641.327	18.85155	-46.95479	0.6379895
51.22023	2638.836	18.72914	-46.92533	0.6401489
51.27434	2636.35	18.60324	-46.89455	0.6430546
51.32845	2633.869	18.48404	-46.86225	0.6467859
51.38255	2631.396	18.37748	-46.8283	0.6514108
51.43666	2628.934	18.28731	-46.79258	0.6569743
51.49076	2626.485	18.21171	-46.75501	0.6635207
51.54487	2624.048	18.14692	-46.71552	0.6710667
51.59898	2621.622	18.08961	-46.67409	0.6796184
51.65309	2619.201	18.03982	-46.63072	0.6891422
51.70719	2616.781	17.9983	-46.58545	0.6995712
51.7613	2614.362	17.96297	-46.53833	0.7107894
51.81541	2611.934	17.93575	-46.48945	0.7226321
51.86951	2609.491	17.9218	-46.43891	0.7348809
51.92362	2607.028	17.92429	-46.38685	0.7472594
51.97773	2604.543	17.94119	-46.33342	0.759441
52.03183	2602.04	17.96939	-46.27877	0.7710646
52.08594	2599.52	18.0051	-46.22306	0.7817431
52.14005	2596.981	18.04459	-46.16648	0.7910905
52.19416	2594.424	18.08842	-46.10924	0.7987312
52.24826	2591.854	18.13956	-46.05155	0.8043179
52.30237	2589.282	18.20134	-45.99365	0.8075331
52.35648	2586.713	18.27366	-45.93579	0.8081188
52.41058	2584.154	18.34928	-45.87818	0.8058865
52.46469	2581.608	18.41751	-45.82105	0.8007049
52.5188	2579.078	18.46889	-45.76461	0.7925258
52.57291	2576.565	18.49748	-45.70903	0.7813826
52.62701	2574.068	18.49955	-45.6545	0.7673945
52.68112	2571.582	18.47215	-45.60117	0.7507677
52.73523	2569.098	18.41506	-45.54914	0.7317786
52.78933	2566.611	18.32995	-45.4985	0.7107694
52.84344	2564.12	18.22096	-45.44926	0.6881183
52.89755	2561.628	18.0914	-45.40142	0.6642401
52.95165	2559.141	17.94022	-45.35492	0.6395403
53.00576	2556.659	17.76608	-45.30971	0.6144361
53.05987	2554.183	17.56814	-45.26571	0.5893221
53.11398	2551.707	17.34697	-45.22284	0.5645439
53.16808	2549.228	17.10646	-45.181	0.5403652
53.22219	2546.75	16.85298	-45.14009	0.5169576
53.27629	2544.275	16.59735	-45.09999	0.4943889
53.3304	2541.803	16.35117	-45.06061	0.472638
53.38451	2539.336	16.12394	-45.02185	0.4516123
53.43862	2536.878	15.9226	-44.98365	0.4311353
53.49273	2534.43	15.75328	-44.94593	0.4109934
53.54683	2531.995	15.61681	-44.9086	0.390937
53.60094	2529.569	15.50963	-44.87156	0.3706976
53.65504	2527.152	15.43048	-44.83468	0.350017
53.70915	2524.749	15.37538	-44.79784	0.3286556
53.76326	2522.361	15.34117	-44.7609	0.3064036
53.81737	2519.984	15.32562	-44.72377	0.283096
53.87147	2517.613	15.32867	-44.68634	0.2586006
53.92558	2515.243	15.35077	-44.64854	0.2328175
53.97969	2512.87	15.39491	-44.61029	0.2057004
54.03379	2510.497	15.46372	-44.57158	0.177257
54.0879	2508.129	15.55657	-44.53237	0.1475849
54.14201	2505.769	15.67143	-44.49269	0.1169283
54.19611	2503.42	15.80697	-44.45258	0.08585593
54.25022	2501.083	15.96051	-44.41209	0.05604082
54.30433	2498.758	16.12941	-44.37128	0.03468871
54.35844	2496.442	16.30792	-44.33024	0.04155426
54.41254	2494.131	16.48764	-44.28906	0.06929768
54.46665	2491.82	16.66157	-44.24781	0.1021165
54.52076	2489.507	16.82493	-44.20657	0.1360126
54.57486	2487.189	16.97845	-44.16542	0.169736
54.62897	2484.866	17.12175	-44.12443	0.2026217
54.68308	2482.539	17.25146	-44.08364	0.2342005
54.73719	2480.202	17.35958	-44.04309	0.2640803
54.79129	2477.849	17.4423	-44.00281	0.2919259
54.8454	2475.475	17.49682	-43.96281	0.3174298
54.89951	2473.078	17.52319	-43.92314	0.3403367
54.95361	2470.665	17.52437	-43.88383	0.3604388
55.00772	2468.244	17.5081	-43.84497	0.3775848
55.06183	2465.823	17.48553	-43.80664	0.3917009
55.11593	2463.403	17.46518	-43.76894	0.4027711
55.17004	2460.988	17.45144	-43.73195	0.4108751
55.22415	2458.577	17.44593	-43.69578	0.4161929
55.27826	2456.173	17.44929	-43.66051	0.4190161
55.33236	2453.778	17.46161	-43.62623	0.4197125
55.38647	2451.392	17.48312	-43.59301	0.4187551
55.44057	2449.016	17.51661	-43.56092	0.4166926
55.49468	2446.642	17.56536	-43.52998	0.4141519
55.54879	2444.261	17.6282	-43.50019	0.4118114
55.6029	2441.869	17.6986	-43.47147	0.4103546
55.65701	2439.463	17.76817	-43.4437	0.4104155
55.71111	2437.048	17.83229	-43.41674	0.4125066
55.76522	2434.631	17.88849	-43.39042	0.4169812
55.81932	2432.219	17.93512	-43.36455	0.4239882
55.87343	2429.817	17.96942	-43.33895	0.433472
55.92754	2427.424	17.99064	-43.31342	0.4451792
55.98165	2425.038	17.99875	-43.28779	0.4586904
56.03576	2422.656	17.99292	-43.26188	0.4734805
56.08986	2420.281	17.97433	-43.23553	0.4889618
56.14397	2417.915	17.94591	-43.20861	0.5045338
56.19807	2415.563	17.91055	-43.18097	0.5196307
56.25218	2413.231	17.87279	-43.1525	0.5337529
56.30629	2410.916	17.83548	-43.12307	0.5464759
56.36039	2408.617	17.79897	-43.09257	0.5574699
56.4145	2406.329	17.75991	-43.06084	0.5665024
56.46861	2404.048	17.7135	-43.02776	0.5734235
56.52272	2401.77	17.65491	-42.99316	0.5781541
56.57682	2399.49	17.58212	-42.95692	0.5806989
56.63093	2397.204	17.497	-42.91892	0.5811166
56.68504	2394.913	17.39983	-42.87908	0.5795355
56.73914	2392.618	17.29152	-42.83731	0.5761498
56.79325	2390.323	17.17476	-42.79362	0.5711935
56.84736	2388.029	17.05209	-42.748	0.5649267
56.90147	2385.742	16.92374	-42.70049	0.5575997
56.95557	2383.465	16.7894	-42.65118	0.5494497
57.00968	2381.201	16.64969	-42.60018	0.5406729
57.06379	2378.948	16.5071	-42.54762	0.5314263
57.11789	2376.701	16.36269	-42.49369	0.5218124
57.172	2374.454	16.21886	-42.43859	0.5118669
57.22611	2372.2	16.0798	-42.38254	0.5015429
57.28022	2369.937	15.94554	-42.32578	0.4907565
57.33432	2367.665	15.81484	-42.26857	0.4793831
57.38843	2365.386	15.68959	-42.21114	0.4672824
57.44254	2363.099	15.57288	-42.15372	0.454301
57.49664	2360.8	15.46777	-42.09652	0.4403104
57.55075	2358.485	15.37307	-42.03975	0.4252165
57.60485	2356.154	15.28451	-41.98354	0.4089719
57.65896	2353.81	15.19881	-41.92805	0.3915818
57.71307	2351.46	15.11725	-41.87341	0.3730839
57.76718	2349.11	15.04495	-41.81971	0.3535757
57.82129	2346.769	14.98704	-41.76708	0.3332023
57.87539	2344.444	14.94826	-41.71561	0.3121709
57.9295	2342.138	14.93282	-41.66536	0.2907252
57.9836	2339.852	14.94277	-41.61641	0.2691662
58.03771	2337.585	14.97783	-41.5688	0.2478599
58.09182	2335.334	15.03467	-41.52254	0.2272415
58.14593	2333.093	15.10746	-41.47761	0.2078429
58.20004	2330.858	15.192	-41.43399	0.1903157
58.25414	2328.624	15.29035	-41.39162	0.1754216
58.30825	2326.384	15.40581	-41.35044	0.1640082
58.36235	2324.139	15.53756	-41.3103	0.1568754
58.41646	2321.889	15.68221	-41.27105	0.1545779
58.47057	2319.638	15.83583	-41.23246	0.1572233
58.52468	2317.388	15.99531	-41.19432	0.1644203
58.57878	2315.145	16.15746	-41.15638	0.1754196
58.63289	2312.908	16.31705	-41.11841	0.1893378
58.687	2310.68	16.46697	-41.08022	0.205339
58.7411	2308.465	16.59985	-41.04161	0.22271
58.79521	2306.264	16.7105	-41.00243	0.2409023
58.84932	2304.079	16.79451	-40.9625	0.2595165
58.90342	2301.912	16.85081	-40.92165	0.2782793
58.95753	2299.764	16.87961	-40.87973	0.2970456
59.01164	2297.636	16.88599	-40.83659	0.3157882
59.06575	2295.523	16.87736	-40.79208	0.3345641
59.11985	2293.416	16.86184	-40.74613	0.3534832
59.17396	2291.305	16.84926	-40.69864	0.3727027
59.22807	2289.183	16.8429	-40.64957	0.392392
59.28217	2287.045	16.83998	-40.5989	0.4127157
59.33628	2284.889	16.83456	-40.54664	0.4338173
59.39039	2282.718	16.8238	-40.49284	0.4558084
59.4445	2280.535	16.8099	-40.43758	0.4787548
59.4986	2278.345	16.79531	-40.38094	0.5026777
59.55271	2276.152	16.78238	-40.32305	0.5275303
59.60682	2273.96	16.77012	-40.26406	0.5532079
59.66092	2271.772	16.75597	-40.20411	0.5795186
59.71503	2269.591	16.73987	-40.14337	0.6062122
59.76914	2267.417	16.71864	-40.08204	0.6329796
59.82324	2265.247	16.688	-40.02027	0.6594865
59.87735	2263.078	16.64545	-39.95826	0.6853904
59.93146	2260.908	16.59395	-39.89616	0.7103543
59.98557	2258.737	16.53888	-39.83411	0.7340692
60.03967	2256.563	16.48297	-39.77223	0.7562536
60.09378	2254.387	16.42741	-39.71061	0.7766569
60.14788	2252.207	16.37284	-39.64929	0.795036
60.20199	2250.018	16.31995	-39.58827	0.8111964
60.2561	2247.818	16.27114	-39.52752	0.8249782
60.31021	2245.607	16.22546	-39.46696	0.8363094
60.36432	2243.389	16.17941	-39.40647	0.8451724
60.41842	2241.167	16.13105	-39.34588	0.8516098
60.47253	2238.947	16.08038	-39.28498	0.8557139
60.52663	2236.732	16.02625	-39.22356	0.8576191
60.58074	2234.526	15.96626	-39.16138	0.8574786
60.63485	2232.332	15.89988	-39.09816	0.855454
60.68896	2230.153	15.82501	-39.03364	0.8517049
60.74306	2227.991	15.73874	-38.96754	0.8463723
60.79717	2225.846	15.64081	-38.89958	0.8395838
60.85128	2223.714	15.53149	-38.82945	0.8314351
60.90538	2221.595	15.41058	-38.75684	0.8220119
60.95949	2219.49	15.27605	-38.68144	0.8113595
61.0136	2217.403	15.12963	-38.60295	0.7994904
61.0677	2215.331	14.97411	-38.52108	0.7864078
61.12181	2213.272	14.81396	-38.43554	0.7720794
61.17592	2211.223	14.65573	-38.34608	0.7564426
61.23003	2209.182	14.50572	-38.25249	0.739415
61.28413	2207.144	14.37003	-38.15457	0.720894
61.33824	2205.108	14.25349	-38.05221	0.7007669
61.39235	2203.075	14.15779	-37.94532	0.6789169
61.44645	2201.049	14.08238	-37.8339	0.6552314
61.50056	2199.034	14.02503	-37.71796	0.6296095
61.55467	2197.032	13.98169	-37.59758	0.6019754
61.60878	2195.042	13.94513	-37.47283	0.5722898
61.66288	2193.063	13.91391	-37.3438	0.5405413
61.71699	2191.093	13.89017	-37.21059	0.5067614
61.7711	2189.125	13.87486	-37.07329	0.4710179
61.8252	2187.156	13.86478	-36.93198	0.4334248
61.87931	2185.178	13.85883	-36.78675	0.3941383
61.93342	2183.188	13.86009	-36.63767	0.3533704
61.98752	2181.181	13.86919	-36.48482	0.3113875
62.04163	2179.157	13.88555	-36.32823	0.2684895
62.09574	2177.122	13.90931	-36.16795	0.2250181
62.14985	2175.077	13.94139	-36.00396	0.1813719
62.20395	2173.026	13.98386	-35.83622	0.1380663
62.25806	2170.973	14.03882	-35.66462	0.09597281
62.31216	2168.923	14.10424	-35.48904	0.05749613
62.36627	2166.881	14.175	-35.30927	0.03459932
62.42038	2164.851	14.24551	-35.12506	0.05126177
62.47449	2162.833	14.31061	-34.93614	0.0851072
62.52859	2160.826	14.36588	-34.74216	0.1208576
62.5827	2158.83	14.4108	-34.54273	0.1556354
62.63681	2156.85	14.44643	-34.33741	0.1885764
62.69091	2154.892	14.4727	-34.12571	0.2192877
62.74502	2152.962	14.48785	-33.90707	0.2475376
62.79913	2151.06	14.48998	-33.68089	0.2731656
62.85324	2149.184	14.47952	-33.44654	0.2960547
62.90734	2147.333	14.45777	-33.20334	0.3161222
62.96145	2145.506	14.42965	-32.95058	0.3333075
63.01556	2143.705	14.40092	-32.68753	0.3475592
63.06966	2141.928	14.37649	-32.41346	0.3588461
63.12377	2140.179	14.36226	-32.12762	0.3671536
63.17788	2138.455	14.36262	-31.82928	0.3725129
63.23198	2136.751	14.38275	-31.51772	0.3749847
63.28609	2135.062	14.42654	-31.19224	0.374676
63.3402	2133.38	14.49546	-30.8522	0.3717318
63.39431	2131.7	14.588	-30.49702	0.3663378
63.44841	2130.022	14.70156	-30.12614	0.3586896
63.50252	2128.348	14.83206	-29.73907	0.3490005
63.55663	2126.683	14.97146	-29.33533	0.3374798
63.61073	2125.025	15.10657	-28.91447	0.3243147
63.66484	2123.375	15.22825	-28.47606	0.3096806
63.71895	2121.735	15.33531	-28.01965	0.2937367
63.77306	2120.108	15.42805	-27.54487	0.2766064
63.82716	2118.496	15.50776	-27.05132	0.2583781
63.88127	2116.896	15.57745	-26.5387	0.2391143
63.93538	2115.303	15.64005	-26.00668	0.2188238
63.98948	2113.714	15.69965	-25.45498	0.1975001
64.04359	2112.13	15.75812	-24.88331	0.1751006
64.09769	2110.554	15.81658	-24.29137	0.1516481
64.1518	2108.99	15.87506	-23.67882	0.1272607
64.20591	2107.443	15.93367	-23.04528	0.1022982
64.26002	2105.917	15.9945	-22.39031	0.07770373
64.31413	2104.421	16.05562	-21.7134	0.05614378
64.36823	2102.962	16.11071	-21.01401	0.0450812
64.42234	2101.546	16.14999	-20.2915	0.05367541
64.47645	2100.176	16.16222	-19.54522	0.07652637
64.53056	2098.849	16.1374	-18.77443	0.1051891
64.58466	2097.562	16.06991	-17.97836	0.1361481
64.63876	2096.312	15.96165	-17.15619	0.1679896
64.69287	2095.099	15.81919	-16.30702	0.1999452
64.74698	2093.927	15.65194	-15.42989	0.2314718
64.80109	2092.806	15.47108	-14.5238	0.2621262
64.85519	2091.742	15.2878	-13.58769	0.2915206
64.9093	2090.74	15.11157	-12.62046	0.3192894
64.96341	2089.804	14.94811	-11.62097	0.3451329
65.01752	2088.933	14.80202	-10.58804	0.3687764
65.07162	2088.129	14.67741	-9.520475	0.3899578
65.12573	2087.388	14.57699	-8.417072	0.4084795
65.17984	2086.71	14.50306	-7.276629	0.4241644
65.23394	2086.095	14.45427	-6.097982	0.4368929
65.28805	2085.544	14.4245	-4.879978	0.4465794
65.34216	2085.057	14.40649	-3.621444	0.4531124
65.39626	2084.635	14.39107	-2.321262	0.4564874
65.45037	2084.278	14.37187	-0.9783188	0.4567034
65.50448	2083.987	14.34754	0.4085065	0.4538254
65.55859	2083.763	14.31743	1.840279	0.4479033
65.61269	2083.605	14.28169	3.318071	0.4390574
65.6668	2083.517	14.24216	4.842931	0.4274356
65.72091	2083.502	14.20172	6.415872	0.4132099
65.77502	2083.565	14.16482	8.037885	0.3965663
65.82912	2083.712	14.13727	9.709889	0.37774
65.88322	2083.942	14.12361	11.43279	0.3569357
65.93733	2084.252	14.12718	13.20746	0.3343572
65.99144	2084.64	14.14648	15.03479	0.310251
66.04555	2085.106	14.17956	16.91562	0.2847674
66.09966	2085.651	14.22296	18.85085	0.2580653
66.15376	2086.28	14.26813	20.84134	0.2303284
66.20787	2086.993	14.30609	22.88809	0.2016295
66.26198	2087.79	14.33122	24.99206	0.1721584
66.31609	2088.671	14.34137	27.15428	0.1421602
66.37019	2089.634	14.33412	29.37582	0.1120498
66.4243	2090.682	14.30817	31.65784	0.08279251
66.4784	2091.823	14.26249	34.0015	0.05684503
66.53251	2093.072	14.19986	36.40803	0.04216295
66.58662	2094.443	14.12728	38.8787	0.05025768
66.64072	2095.947	14.05421	41.41477	0.07377936
66.69483	2097.587	13.99191	44.01755	0.1021174
66.74894	2099.37	13.94972	46.68834	0.131574
66.80305	2101.303	13.93178	49.42845	0.1608437
66.85715	2103.393	13.93893	52.23919	0.1893121
66.91126	2105.643	13.96772	55.1219	0.2166466
66.96537	2108.053	14.01188	58.07783	0.2425846
67.01948	2110.627	14.06205	61.10828	0.2670299
67.07359	2113.367	14.10985	64.21446	0.2899067
67.12769	2116.271	14.15052	67.39758	0.3112826
67.18179	2119.34	14.18491	70.65868	0.3312245
67.2359	2122.578	14.21406	73.99881	0.3498679
67.29001	2125.989	14.24168	77.41888	0.3674085
67.34412	2129.573	14.2736	80.91975	0.3840741
67.39822	2133.341	14.31556	84.50216	0.4001387
67.45233	2137.302	14.36989	88.16681	0.4159022
67.50644	2141.461	14.43637	91.91427	0.4316456
67.56055	2145.823	14.51462	95.74503	0.4476351
67.61465	2150.391	14.60182	99.65944	0.4641105
67.66876	2155.167	14.69275	103.6578	0.4812549
67.72286	2160.157	14.78513	107.7402	0.4992174
67.77697	2165.364	14.87699	111.9067	0.5181538
67.83108	2170.791	14.96827	116.1572	0.5381642
67.88519	2176.442	15.06002	120.4916	0.5594423
67.93929	2182.316	15.1504	124.9095	0.5821831
67.9934	2188.415	15.23755	129.4106	0.6066763
68.04751	2194.739	15.32021	133.9941	0.6332005
68.10162	2201.292	15.39516	138.6596	0.6620893
68.15572	2208.082	15.45823	143.4063	0.6937045
68.20983	2215.12	15.50864	148.2332	0.7283747
68.26394	2222.424	15.54913	153.1394	0.7664238
68.31805	2230.008	15.58314	158.124	0.8080996
68.37215	2237.881	15.61409	163.1858	0.8535532
68.42625	2246.047	15.64066	168.3235	0.9028012
68.48036	2254.513	15.65629	173.536	0.9557405
68.53447	2263.284	15.65348	178.8218	1.012117
68.58858	2272.368	15.62815	184.1797	1.071586
68.64268	2281.769	15.5831	189.608	1.133656
68.69679	2291.489	15.52741	195.1052	1.197725
68.7509	2301.536	15.4728	200.6696	1.263192
68.80501	2311.921	15.43067	206.2996	1.329379
68.85912	2322.653	15.40578	211.9932	1.395619
68.91322	2333.738	15.39805	217.7488	1.461263
68.96732	2345.179	15.40321	223.5642	1.525737
69.02143	2356.98	15.41578	229.4376	1.588544
69.07554	2369.14	15.43087	235.3665	1.649265
69.12965	2381.658	15.4445	241.3486	1.707585
69.18375	2394.536	15.45229	247.3811	1.763292
69.23786	2407.772	15.45394	253.4611	1.816292
69.29197	2421.365	15.45392	259.5852	1.866614
69.34608	2435.317	15.45916	265.7498	1.914408
69.40018	2449.632	15.47278	271.9509	1.959906
69.45429	2464.317	15.49899	278.1841	2.003453
69.5084	2479.381	15.5419	284.4448	2.045434
69.56251	2494.825	15.60605	290.7275	2.086256
69.61661	2510.649	15.69421	297.0267	2.126348
69.67072	2526.853	15.80923	303.3363	2.166039
69.72482	2543.434	15.95039	309.6496	2.205643
69.77893	2560.391	16.10945	315.9595	2.245468
69.83304	2577.723	16.27583	322.2582	2.285731
69.88715	2595.435	16.44263	328.5376	2.326635
69.94125	2613.532	16.60942	334.7889	2.368427
69.99536	2632.015	16.77572	341.0027	2.411234
70.04947	2650.882	16.93704	347.1692	2.455226
70.10358	2670.128	17.08776	353.278	2.50057
70.15768	2689.751	17.22628	359.3184	2.547317
70.21178	2709.75	17.35238	365.2789	2.595575
70.26589	2730.126	17.46629	371.148	2.645371
70.32	2750.885	17.57632	376.9134	2.696703
70.37411	2772.026	17.69722	382.5627	2.749443
70.42822	2793.548	17.84297	388.0831	2.803415
70.48232	2815.451	18.0218	393.4617	2.85839
70.53643	2837.738	18.23481	398.6853	2.913989
70.59054	2860.414	18.47814	403.7408	2.969917
70.64465	2883.479	18.74238	408.6149	3.025657
70.69875	2906.931	19.01637	413.2946	3.080732
70.75286	2930.762	19.29215	417.7669	3.134688
70.80696	2954.969	19.56467	422.0192	3.186944
70.86107	2979.54	19.8284	426.0393	3.236983
70.91518	3004.469	20.07591	429.8153	3.284301
70.96928	3029.75	20.30349	433.336	3.328366
71.02339	3055.38	20.50897	436.5907	3.368734
71.0775	3081.361	20.69266	439.5694	3.404929
71.13161	3107.69	20.85576	442.2628	3.436579
71.18571	3134.359	21.00089	444.6622	3.463361
71.23982	3161.357	21.135	446.76	3.484965
71.29393	3188.679	21.27244	448.5493	3.501197
71.34804	3216.318	21.42396	450.0239	3.511847
71.40215	3244.269	21.60194	451.179	3.516882
71.45625	3272.53	21.80923	452.0101	3.516278
71.51035	3301.091	22.04021	452.5143	3.510118
71.56446	3329.929	22.28224	452.6889	3.498546
71.61857	3359.015	22.52277	452.5327	3.481827
71.67268	3388.309	22.75409	452.0455	3.460267
71.72678	3417.764	22.97181	451.2276	3.434218
71.78089	3447.331	23.17242	450.0806	3.404086
71.835	3476.963	23.35362	448.6068	3.370347
71.88911	3506.618	23.51741	446.8093	3.333434
71.94321	3536.256	23.66942	444.692	3.293833
71.99732	3565.833	23.81721	442.2595	3.25207
72.05142	3595.309	23.96698	439.5174	3.20863
72.10553	3624.635	24.12401	436.4716	3.164045
72.15964	3653.767	24.2925	433.1288	3.118798
72.21375	3682.659	24.47202	429.4963	3.073357
72.26785	3711.264	24.66341	425.5818	3.02814
72.32196	3739.529	24.87249	421.3938	2.983611
72.37607	3767.395	25.10619	416.941	2.940084
72.43018	3794.798	25.36812	412.2324	2.897896
72.48428	3821.675	25.65498	407.2774	2.857286
72.53839	3847.973	25.96019	402.086	2.818487
72.5925	3873.648	26.27592	396.6684	2.78168
72.64661	3898.66	26.59193	391.0349	2.746924
72.70071	3922.976	26.89915	385.1963	2.714275
72.75481	3946.567	27.18748	379.1637	2.683669
72.80892	3969.408	27.44864	372.9482	2.654905
72.86303	3991.481	27.67125	366.5613	2.627755
72.91714	4012.772	27.84892	360.0148	2.601825
72.97124	4033.275	27.97896	353.3206	2.576693
73.02535	4052.993	28.06072	346.4908	2.551888
73.07946	4071.933	28.10072	339.5379	2.526834
73.13357	4090.104	28.10954	332.4746	2.500955
73.18768	4107.504	28.09624	325.3139	2.473664
73.24178	4124.134	28.07005	318.0687	2.444345
73.29588	4139.997	28.03505	310.7525	2.412399
73.34999	4155.1	27.99568	303.3787	2.377221
73.4041	4169.458	27.95687	295.9611	2.338257
73.45821	4183.097	27.92491	288.5135	2.295056
73.51231	4196.049	27.90547	281.0498	2.247242
73.56642	4208.355	27.89925	273.5841	2.194625
73.62053	4220.057	27.90323	266.1303	2.137161
73.67464	4231.196	27.91221	258.7023	2.074933
73.72874	4241.809	27.92115	251.314	2.00826
73.78285	4251.932	27.92375	243.9788	1.937501
73.83696	4261.594	27.91426	236.7099	1.863183
73.89107	4270.823	27.89011	229.5203	1.785963
73.94517	4279.648	27.8563	222.4223	1.706606
73.99928	4288.099	27.828	215.4277	1.626008
74.05338	4296.199	27.82567	208.5481	1.545098
74.10749	4303.971	27.86568	201.794	1.465028
74.1616	4311.442	27.95411	195.1753	1.386926
74.21571	4318.642	28.08804	188.7016	1.311848
74.26981	4325.6	28.25963	182.3814	1.240992
74.32392	4332.343	28.45793	176.2223	1.175443
74.37803	4338.89	28.66965	170.2313	1.116227
74.43214	4345.256	28.88098	164.4144	1.064242
74.48624	4351.454	29.08067	158.7764	1.020217
74.54034	4357.492	29.26035	153.3216	0.9846773
74.59445	4363.376	29.40851	148.053	0.9578599
74.64856	4369.112	29.52197	142.9727	0.9397026
74.70267	4374.707	29.60093	138.082	0.9298244
74.75677	4380.167	29.64897	133.381	0.9275923
74.81088	4385.5	29.67083	128.8689	0.9320996
74.86499	4390.706	29.67361	124.5442	0.9423197
74.9191	4395.783	29.66572	120.4044	0.9571677
74.97321	4400.728	29.65227	116.4461	0.9754657
75.02731	4405.539	29.63758	112.6655	0.9962153
75.08142	4410.223	29.61931	109.0578	1.018453
75.13553	4414.789	29.59412	105.6178	1.041458
75.18963	4419.24	29.56018	102.3398	1.064534
75.24374	4423.583	29.51605	99.21754	1.087162
75.29784	4427.828	29.45963	96.24448	1.108932
75.35195	4431.979	29.38917	93.41386	1.129549
75.40606	4436.039	29.30702	90.71879	1.148842
75.46017	4440.004	29.21521	88.15225	1.16677
75.51427	4443.875	29.11599	85.70723	1.183389
75.56838	4447.652	29.01699	83.37672	1.198876
75.62249	4451.345	28.93202	81.15381	1.213515
75.6766	4454.965	28.87861	79.03167	1.227672
75.73071	4458.525	28.87441	77.00364	1.24182
75.78481	4462.035	28.92918	75.06323	1.256519
75.83891	4465.5	29.04034	73.20411	1.272392
75.89302	4468.925	29.19106	71.4202	1.29019
75.94713	4472.318	29.35851	69.70567	1.310729
76.00124	4475.688	29.5247	68.05497	1.334923
76.05534	4479.038	29.67941	66.46278	1.363696
76.10945	4482.368	29.81839	64.92416	1.39798
76.16356	4485.669	29.94094	63.43449	1.438645
76.21767	4488.932	30.05311	61.98952	1.486461
76.27177	4492.143	30.16325	60.58538	1.542085
76.32588	4495.292	30.27692	59.21852	1.606022
76.37999	4498.373	30.39898	57.88579	1.67865
76.43409	4501.389	30.53623	56.58433	1.760223
76.4882	4504.344	30.70132	55.31161	1.850869
76.5423	4507.241	30.89857	54.06542	1.950589
76.59641	4510.077	31.1278	52.8438	2.059276
76.65052	4512.854	31.37898	51.64507	2.176725
76.70463	4515.57	31.63425	50.46781	2.30265
76.75874	4518.233	31.86896	49.31083	2.436681
76.81284	4520.85	32.05975	48.1732	2.578377
76.86695	4523.422	32.18852	47.05417	2.727239
76.92106	4525.948	32.24973	45.95324	2.882716
76.97517	4528.426	32.25172	44.8701	3.044214
77.02927	4530.851	32.21147	43.8046	3.211081
77.08337	4533.218	32.14746	42.75673	3.3826
77.13748	4535.517	32.08134	41.72665	3.557996
77.19159	4537.736	32.03537	40.71462	3.736459
77.2457	4539.867	32.02541	39.72103	3.917147
77.2998	4541.909	32.06231	38.7464	4.099226
77.35391	4543.869	32.15258	37.79135	4.281898
77.40802	4545.755	32.29357	36.85661	4.464407
77.46213	4547.579	32.4737	35.943	4.646046
77.51624	4549.354	32.6702	35.05139	4.826138
77.57034	4551.089	32.85544	34.18275	5.004038
77.62445	4552.791	33.00805	33.33803	5.179152
77.67855	4554.464	33.11582	32.51826	5.35092
77.73266	4556.106	33.18068	31.72445	5.518814
77.78677	4557.714	33.21584	30.95762	5.682341
77.84087	4559.279	33.24239	30.21877	5.841043
77.89498	4560.796	33.28139	29.50887	5.994498
77.94909	4562.256	33.35485	28.82886	6.142327
78.0032	4563.645	33.48227	28.17961	6.284169
78.0573	4564.957	33.68169	27.56194	6.41968
78.11141	4566.191	33.96123	26.97667	6.548526
78.16552	4567.351	34.32374	26.42455	6.670355
78.21963	4568.436	34.76311	25.90627	6.784814
78.27373	4569.439	35.26371	25.42246	6.891551
78.32784	4570.36	35.80653	24.97369	6.990246
78.38194	4571.203	36.37107	24.56041	7.080623
78.43605	4571.976	36.93304	24.18299	7.162447
78.49016	4572.688	37.478	23.84174	7.235505
78.54427	4573.345	38.00239	23.53677	7.299622
78.59837	4573.959	38.50739	23.26818	7.354599
78.65248	4574.542	38.99794	23.03595	7.400262
78.70659	4575.109	39.48171	22.84003	7.436417
78.7607	4575.671	39.97269	22.68022	7.462934
78.8148	4576.228	40.48356	22.5563	7.479734
78.86891	4576.771	41.0169	22.46792	7.486803
78.92301	4577.291	41.57534	22.41469	7.484198
78.97712	4577.786	42.16272	22.39613	7.47203
79.03123	4578.262	42.7746	22.41166	7.450443
79.08533	4578.725	43.39737	22.4607	7.419617
79.13944	4579.185	44.01771	22.54256	7.37977
79.19355	4579.658	44.62095	22.65655	7.331159
79.24766	4580.156	45.19273	22.80188	7.274093
79.30177	4580.696	45.72	22.97778	7.208942
79.35587	4581.288	46.19746	23.18341	7.136124
79.40998	4581.944	46.63298	23.4179	7.05611
79.46409	4582.675	47.03976	23.68037	6.969373
79.51819	4583.492	47.43418	23.9699	6.876397
79.5723	4584.406	47.8307	24.28552	6.777658
79.6264	4585.42	48.23758	24.62619	6.673644
79.68051	4586.535	48.65843	24.99083	6.564839
79.73462	4587.739	49.0912	25.37831	6.45172
79.78873	4589.025	49.52958	25.78745	6.334756
79.84283	4590.389	49.97189	26.217	6.214413
79.89694	4591.83	50.41665	26.66564	6.091161
79.95105	4593.339	50.85988	27.13194	5.965459
80.00516	4594.904	51.2977	27.61445	5.837775
80.05927	4596.517	51.72649	28.11164	5.708546
80.11337	4598.176	52.14206	28.62189	5.578189
80.16747	4599.881	52.53877	29.14354	5.447056
80.22158	4601.631	52.90763	29.67484	5.315453
80.27569	4603.424	53.24118	30.21395	5.183637
80.3298	4605.262	53.53757	30.75901	5.051832
80.3839	4607.143	53.79114	31.30807	4.920229
80.43801	4609.07	54.00058	31.85915	4.788979
80.49212	4611.034	54.16917	32.41021	4.658204
80.54623	4613.027	54.30599	32.95918	4.527982
80.60033	4615.047	54.41975	33.50398	4.398384
80.65444	4617.1	54.51328	34.04252	4.269462
80.70855	4619.193	54.58904	34.5727	4.141292
80.76265	4621.333	54.6516	35.09245	4.013974
80.81676	4623.523	54.69801	35.59973	3.887621
80.87086	4625.765	54.72609	36.09256	3.762368
80.92497	4628.054	54.73432	36.56899	3.638353
80.97908	4630.392	54.72421	37.02709	3.515717
81.03319	4632.77	54.69598	37.46502	3.394622
81.0873	4635.182	54.65374	37.88095	3.275238
81.1414	4637.619	54.60748	38.27312	3.15776
81.19551	4640.077	54.56713	38.63985	3.042431
81.24962	4642.546	54.53745	38.97947	2.929543
81.30373	4645.021	54.52271	39.29043	2.819433
81.35783	4647.495	54.5283	39.57127	2.712436
81.41193	4649.967	54.55664	39.82071	2.608893
81.46604	4652.439	54.61126	40.03764	2.509118
81.52015	4654.909	54.69508	40.22108	2.413379
81.57426	4657.381	54.80985	40.37021	2.32189
81.62836	4659.86	54.95191	40.48438	2.234823
81.68247	4662.344	55.1136	40.56307	2.152303
81.73658	4664.827	55.2826	40.60592	2.074421
81.79069	4667.307	55.45045	40.61264	2.001216
81.8448	4669.783	55.61209	40.58304	1.932679
81.8989	4672.258	55.76487	40.51698	1.868757
81.95301	4674.731	55.90723	40.41441	1.809313
82.00711	4677.199	56.03724	40.27531	1.754146
82.06122	4679.655	56.15714	40.09973	1.702968
82.11533	4682.096	56.27559	39.88776	1.655486
82.16943	4684.521	56.39957	39.63952	1.611346
82.22354	4686.93	56.53431	39.35513	1.570193
82.27765	4689.325	56.68312	39.03478	1.531745
82.33176	4691.715	56.84466	38.67865	1.495767
82.38586	4694.105	57.01598	38.28696	1.462078
82.43997	4696.497	57.19284	37.85997	1.430586
82.49408	4698.89	57.36884	37.39799	1.40127
82.54819	4701.29	57.53571	36.90136	1.374209
82.60229	4703.692	57.68354	36.37046	1.349561
82.65639	4706.096	57.80096	35.80571	1.327535
82.7105	4708.493	57.87688	35.20758	1.308365
82.76461	4710.871	57.90413	34.57661	1.292268
82.81872	4713.219	57.8882	33.91338	1.279392
82.87283	4715.53	57.8386	33.21851	1.269788
82.92693	4717.793	57.76337	32.4926	1.263379
82.98104	4720	57.67198	31.73628	1.259999
83.03515	4722.138	57.57447	30.95009	1.259315
83.08926	4724.194	57.48109	30.13457	1.260895
83.14336	4726.159	57.39927	29.29016	1.264196
83.19747	4728.034	57.33164	28.4172	1.268661
83.25157	4729.822	57.27706	27.51598	1.273714
83.30568	4731.534	57.23563	26.58674	1.278788
83.35979	4733.179	57.20066	25.62972	1.283349
83.41389	4734.77	57.16616	24.64519	1.286943
83.468	4736.307	57.12848	23.63348	1.289198
83.52211	4737.791	57.08588	22.59495	1.289876
83.57622	4739.213	57.03833	21.53003	1.288882
83.63033	4740.571	56.98595	20.43925	1.286269
83.68443	4741.857	56.93062	19.32319	1.28223
83.73854	4743.063	56.87902	18.18247	1.277109
83.79265	4744.172	56.84303	17.01777	1.271388
83.84676	4745.182	56.8298	15.82983	1.265662
83.90086	4746.096	56.84451	14.61942	1.260638
83.95496	4746.929	56.88846	13.38736	1.257086
84.00907	4747.689	56.96291	12.13445	1.255815
84.06318	4748.384	57.0692	10.86156	1.257638
84.11729	4749.016	57.20671	9.569514	1.263323
84.17139	4749.593	57.37111	8.259151	1.273551
84.2255	4750.114	57.5542	6.931272	1.28886
84.27961	4750.571	57.74451	5.58666	1.309597
84.33372	4750.95	57.93069	4.226097	1.335861
84.38783	4751.238	58.1075	2.850364	1.367507
84.44193	4751.418	58.27627	1.460257	1.404163
84.49603	4751.49	58.44156	0.05659678	1.445284
84.55014	4751.456	58.61026	-1.359747	1.490194
84.60425	4751.325	58.78779	-2.787843	1.538129
84.65836	4751.102	58.97652	-4.226701	1.588274
84.71246	4750.791	59.17521	-5.67526	1.639805
84.76657	4750.389	59.38385	-7.13241	1.69191
84.82068	4749.903	59.60331	-8.596999	1.743792
84.87479	4749.334	59.83065	-10.06785	1.794689
84.92889	4748.698	60.06173	-11.54375	1.84388
84.983	4748.008	60.2857	-13.02351	1.890695
85.03711	4747.273	60.48929	-14.50591	1.934525
85.09122	4746.487	60.66302	-15.98982	1.974834
85.14532	4745.641	60.79972	-17.47411	2.011169
85.19942	4744.719	60.89741	-18.95773	2.043156
85.25353	4743.712	60.96356	-20.43965	2.070502
85.30764	4742.608	61.00361	-21.91887	2.092978
85.36175	4741.399	61.02166	-23.39442	2.110431
85.41586	4740.078	61.02499	-24.86539	2.122792
85.46996	4738.644	61.02216	-26.33086	2.130091
85.52407	4737.099	61.01565	-27.78992	2.132451
85.57818	4735.453	61.00485	-29.24166	2.130086
85.63229	4733.721	60.98582	-30.68515	2.123317
85.68639	4731.91	60.95205	-32.11942	2.112581
85.74049	4730.02	60.89985	-33.5435	2.098431
85.7946	4728.045	60.82732	-34.95639	2.081531
85.84871	4725.981	60.73286	-36.35704	2.062674
85.90282	4723.827	60.61461	-37.74443	2.042752
85.95692	4721.587	60.47606	-39.11746	2.022762
86.01103	4719.262	60.32888	-40.47508	2.003742
86.06514	4716.854	60.19026	-41.81625	1.986753
86.11925	4714.368	60.07516	-43.13994	1.972839
86.17336	4711.813	59.99284	-44.44519	1.962982
86.22746	4709.19	59.94812	-45.7311	1.958037
86.28157	4706.497	59.94289	-46.99681	1.958664
86.33568	4703.73	59.97472	-48.24154	1.965278
86.38978	4700.887	60.03566	-49.46458	1.978035
86.44389	4697.958	60.11703	-50.66529	1.996844
86.49799	4694.94	60.21301	-51.84311	2.021397
86.5521	4691.833	60.31432	-52.99755	2.051171
86.60621	4688.641	60.41002	-54.12818	2.085512
86.66032	4685.365	60.49253	-55.23461	2.123635
86.71442	4682.013	60.5585	-56.31648	2.16471
86.76853	4678.589	60.60813	-57.3735	2.207839
86.82264	4675.097	60.64455	-58.40535	2.252154
86.87675	4671.536	60.67416	-59.41174	2.296843
86.93085	4667.913	60.70436	-60.39241	2.341173
86.98495	4664.231	60.73746	-61.34713	2.384502
87.03906	4660.492	60.77354	-62.27575	2.426265
87.09317	4656.694	60.80701	-63.17815	2.465969
87.14728	4652.842	60.83155	-64.05431	2.503179
87.20139	4648.932	60.8387	-64.90426	2.537513
87.25549	4644.967	60.82256	-65.72803	2.56862
87.3096	4640.947	60.77434	-66.52575	2.596251
87.36371	4636.874	60.68841	-67.29753	2.62023
87.41782	4632.747	60.56368	-68.0436	2.640446
87.47192	4628.568	60.40106	-68.76423	2.656882
87.52603	4624.338	60.20298	-69.45974	2.669583
87.58014	4620.071	59.98038	-70.13047	2.678678
87.63424	4615.778	59.74507	-70.77683	2.684337
87.68835	4611.473	59.50771	-71.39925	2.686821
87.74245	4607.166	59.27798	-71.99818	2.686424
87.79656	4602.868	59.0612	-72.57411	2.683505
87.85067	4598.581	58.8573	-73.12755	2.678439
87.90478	4594.311	58.65686	-73.65899	2.671604
87.95889	4590.051	58.44565	-74.16891	2.663345
88.01299	4585.804	58.21527	-74.65778	2.653962
88.0671	4581.562	57.95729	-75.12607	2.643707
88.12121	4577.322	57.66717	-75.57425	2.632751
88.17532	4573.082	57.34412	-76.00282	2.621185
88.22942	4568.838	56.99217	-76.41227	2.609001
88.28352	4564.586	56.61954	-76.80313	2.596112
88.33763	4560.327	56.23298	-77.17597	2.582377
88.39174	4556.061	55.84028	-77.53141	2.567598
88.44585	4551.792	55.45419	-77.87013	2.55153
88.49995	4547.52	55.09032	-78.19293	2.533924
88.55406	4543.245	54.7601	-78.50069	2.514538
88.60817	4538.96	54.47151	-78.79433	2.493135
88.66228	4534.665	54.22587	-79.0748	2.469532
88.71638	4530.352	54.01952	-79.34309	2.443547
88.77049	4526.027	53.84775	-79.60015	2.415024
88.8246	4521.691	53.69943	-79.84692	2.383865
88.8787	4517.352	53.56131	-80.08431	2.349989
88.93281	4513.013	53.42464	-80.31321	2.313401
88.98692	4508.678	53.28256	-80.53452	2.274123
89.04102	4504.343	53.1315	-80.74911	2.232254
89.09513	4500.01	52.9718	-80.95792	2.187953
89.14924	4495.677	52.8052	-81.16177	2.141425
89.20335	4491.34	52.64324	-81.36156	2.092923
89.25745	4486.996	52.50275	-81.55806	2.042747
89.31156	4482.646	52.40132	-81.75201	1.991251
89.36567	4478.292	52.35047	-81.94413	1.938773
89.41978	4473.937	52.35511	-82.13506	1.885683
89.47388	4469.575	52.41375	-82.32543	1.83232
89.52798	4465.201	52.5228	-82.51582	1.778981
89.58209	4460.806	52.6729	-82.70677	1.725921
89.6362	4456.381	52.84552	-82.89875	1.673362
89.69031	4451.92	53.01886	-83.0922	1.621458
89.74442	4447.427	53.16913	-83.28744	1.570338
89.79852	4442.904	53.27776	-83.48473	1.520106
89.85263	4438.365	53.33279	-83.6842	1.470844
89.90674	4433.817	53.33554	-83.88592	1.422642
89.96085	4429.265	53.2942	-84.0898	1.375603
90.01495	4424.708	53.22094	-84.29569	1.329857
90.06906	4420.15	53.13035	-84.50337	1.285546
90.12316	4415.588	53.04037	-84.71254	1.242805
90.17727	4411.025	52.96481	-84.92282	1.201773
90.23138	4406.452	52.9178	-85.13381	1.162549
90.28548	4401.858	52.90922	-85.34508	1.125249
90.33959	4397.241	52.9404	-85.55618	1.089969
90.3937	4392.598	53.00428	-85.76669	1.05681
90.44781	4387.936	53.08957	-85.97622	1.025865
90.50191	4383.259	53.18458	-86.18444	0.9972038
90.55602	4378.58	53.27539	-86.39103	0.9708877
90.61013	4373.904	53.34584	-86.59571	0.9469576
90.66424	4369.232	53.38559	-86.79822	0.9254321
90.71834	4364.56	53.39451	-86.99833	0.9063029
90.77245	4359.882	53.382	-87.19583	0.8894933
90.82655	4355.189	53.35806	-87.39055	0.8749254
90.88066	4350.476	53.33213	-87.58231	0.862475
90.93477	4345.737	53.31784	-87.77097	0.8520291
90.98888	4340.975	53.33	-87.95647	0.8434689
91.04298	4336.189	53.38167	-88.13869	0.8367282
91.09709	4331.384	53.4755	-88.31761	0.8317668
91.1512	4326.561	53.60053	-88.49315	0.8285899
91.20531	4321.718	53.74391	-88.66526	0.8272425
91.25941	4316.856	53.89284	-88.83392	0.8277646
91.31352	4311.979	54.0365	-88.9991	0.830224
91.36762	4307.082	54.15865	-89.16082	0.8346797
91.42173	4302.168	54.24487	-89.31915	0.8411949
91.47584	4297.236	54.28366	-89.47425	0.8498269
91.52995	4292.286	54.27094	-89.62632	0.8606194
91.58405	4287.311	54.2123	-89.77557	0.8736038
91.63816	4282.312	54.11803	-89.92223	0.8888223
91.69227	4277.282	54.00237	-90.06647	0.9063217
91.74638	4272.225	53.87586	-90.20849	0.9261473
91.80048	4267.142	53.74547	-90.34843	0.9483978
91.85459	4262.045	53.61778	-90.48641	0.9731528
91.9087	4256.947	53.49433	-90.62258	1.000505
91.9628	4251.858	53.37284	-90.75699	1.030561
92.01691	4246.782	53.25167	-90.8897	1.063412
92.07101	4241.726	53.12849	-91.02069	1.099147
92.12512	4236.692	53.00042	-91.14991	1.137824
92.17923	4231.685	52.8656	-91.27725	1.179498
92.23334	4226.7	52.73104	-91.4026	1.224156
92.28745	4221.741	52.60378	-91.52582	1.271768
92.34155	4216.802	52.48819	-91.64677	1.322243
92.39566	4211.883	52.38627	-91.76527	1.375503
92.44977	4206.974	52.298	-91.86672	1.439426
92.50388	4202.068	52.22717	-91.96735	1.505484
92.55798	4197.158	52.17278	-92.06692	1.572749
92.61208	4192.238	52.13272	-92.16534	1.640567
92.66619	4187.307	52.1061	-92.26263	1.708526
92.7203	4182.369	52.09459	-92.35885	1.77639
92.77441	4177.427	52.09682	-92.45406	1.844045
92.82851	4172.485	52.10729	-92.54836	1.911426
92.88262	4167.544	52.11837	-92.6418	1.978525
92.93673	4162.606	52.12408	-92.73448	2.045347
92.99084	4157.663	52.12402	-92.82645	2.111916
93.04494	4152.709	52.12382	-92.91779	2.178262
93.09905	4147.742	52.12336	-93.00854	2.244428
93.15316	4142.758	52.11952	-93.09876	2.310446
93.20726	4137.754	52.10981	-93.18851	2.376368
93.26137	4132.734	52.09445	-93.27785	2.442229
93.31548	4127.7	52.06615	-93.36681	2.50808
93.36958	4122.661	52.01949	-93.45544	2.573962
93.42369	4117.618	51.95255	-93.5438	2.639915
93.4778	4112.578	51.86398	-93.63194	2.705985
93.53191	4107.535	51.75345	-93.71989	2.77221
93.58601	4102.49	51.61609	-93.80769	2.838618
93.64012	4097.44	51.44777	-93.89539	2.905244
93.69423	4092.38	51.24676	-93.98302	2.972117
93.74834	4087.305	51.0144	-94.07062	3.039263
93.80244	4082.219	50.75832	-94.15822	3.106709
93.85654	4077.123	50.49136	-94.24584	3.174459
93.91065	4072.017	50.22504	-94.33353	3.242538
93.96476	4066.889	49.96762	-94.4213	3.310956
94.01887	4061.736	49.72048	-94.50918	3.379713
94.07298	4056.556	49.48565	-94.59717	3.448823
94.12708	4051.273	49.25811	-94.6853	3.518282
94.18119	4046.012	49.05705	-94.77355	3.58809
94.2353	4040.778	48.8646	-94.86195	3.658241
94.28941	4035.562	48.67381	-94.95049	3.728732
94.34351	4030.357	48.48272	-95.03917	3.799556
94.39762	4025.157	48.29018	-95.12799	3.870705
94.45172	4019.96	48.09631	-95.21694	3.942172
94.50583	4014.761	47.90107	-95.30603	4.013941
94.55994	4009.559	47.70477	-95.39524	4.086001
94.61404	4004.352	47.50812	-95.48457	4.158343
94.66815	3999.139	47.3126	-95.57402	4.230956
94.72226	3993.92	47.11905	-95.66358	4.30382
94.77637	3988.693	46.92893	-95.75323	4.376931
94.83047	3983.457	46.74301	-95.84298	4.450275
94.88458	3978.213	46.56177	-95.93282	4.523831
94.93869	3972.962	46.38598	-96.02273	4.597604
94.9928	3967.708	46.21574	-96.11272	4.671566
