T[Â°C]	350nm [counts / mm]	S.D.	First derivative	S.D. of first derivative
20.00046	2806.084	12.7836	-39.87281	2.066394
20.05441	2803.905	12.67058	-39.85762	2.028776
20.10836	2801.724	12.55369	-39.84258	1.991101
20.16231	2799.54	12.43371	-39.82768	1.953362
20.21625	2797.354	12.31113	-39.81294	1.915544
20.2702	2795.165	12.18624	-39.79836	1.877646
20.32415	2792.976	12.05948	-39.78395	1.839658
20.3781	2790.786	11.93094	-39.76972	1.801571
20.43205	2788.595	11.80061	-39.75566	1.763385
20.486	2786.405	11.66865	-39.7418	1.725086
20.53995	2784.216	11.53514	-39.72814	1.686684
20.5939	2782.029	11.40044	-39.71467	1.648167
20.64785	2779.843	11.26564	-39.70142	1.60954
20.7018	2777.661	11.13126	-39.68838	1.5708
20.75574	2775.48	10.99811	-39.67556	1.531951
20.80969	2773.302	10.8667	-39.66296	1.492993
20.86364	2771.123	10.7364	-39.6506	1.453933
20.91759	2768.936	10.60242	-39.63847	1.414777
20.97154	2766.732	10.45844	-39.62657	1.375534
21.02549	2764.547	10.33582	-39.61491	1.33621
21.07944	2762.364	10.22093	-39.6035	1.296818
21.13339	2760.185	10.11724	-39.59233	1.257368
21.18734	2758.012	10.02535	-39.58141	1.217878
21.24129	2755.85	9.943076	-39.57072	1.17836
21.29524	2753.697	9.869269	-39.56027	1.138832
21.34919	2751.553	9.804505	-39.55006	1.099316
21.40314	2749.423	9.7519	-39.54008	1.059831
21.45708	2747.308	9.718427	-39.53031	1.020394
21.51103	2745.206	9.713928	-39.52076	0.9810262
21.56498	2743.116	9.746195	-39.51141	0.9417501
21.61893	2741.037	9.819495	-39.50224	0.9025844
21.67288	2738.964	9.933217	-39.49324	0.8635462
21.72683	2736.889	10.08063	-39.48439	0.8246635
21.78078	2734.806	10.24673	-39.47565	0.7859491
21.83473	2732.711	10.41759	-39.467	0.7474304
21.88868	2730.606	10.58103	-39.4584	0.7091244
21.94263	2728.493	10.72591	-39.44984	0.6710595
21.99657	2726.371	10.84553	-39.44125	0.6332563
22.05052	2724.245	10.93587	-39.4326	0.5957493
22.10447	2722.119	10.9992	-39.42385	0.5585621
22.15842	2719.997	11.04175	-39.41494	0.5217276
22.21237	2717.884	11.06825	-39.40582	0.4852744
22.26632	2715.782	11.08342	-39.39644	0.4492094
22.32027	2713.695	11.08991	-39.38677	0.4135119
22.37422	2711.622	11.08735	-39.37679	0.3780863
22.42817	2709.557	11.07227	-39.36651	0.3427012
22.48212	2707.495	11.0365	-39.35604	0.306905
22.53607	2705.433	10.97268	-39.34555	0.269952
22.59002	2703.369	10.87927	-39.33528	0.23085
22.64396	2701.302	10.76188	-39.33099	0.1954454
22.69791	2699.232	10.62767	-39.32673	0.1613519
22.75186	2697.151	10.48363	-39.32251	0.1295335
22.80581	2695.057	10.33973	-39.31835	0.1021016
22.85976	2692.949	10.20757	-39.31422	0.0834973
22.91371	2690.832	10.09792	-39.31012	0.08010472
22.96766	2688.71	10.01466	-39.30603	0.09348772
23.02161	2686.586	9.955235	-39.30193	0.1178586
23.07556	2684.461	9.917055	-39.29784	0.1475706
23.12951	2682.337	9.900016	-39.29376	0.1795937
23.18345	2680.216	9.903219	-39.28972	0.2124094
23.2374	2678.097	9.926807	-39.28578	0.2451669
23.29135	2675.977	9.967726	-39.28199	0.2773083
23.3453	2673.854	10.02193	-39.27841	0.3084018
23.39925	2671.724	10.08667	-39.27507	0.3380821
23.4532	2669.581	10.16115	-39.27198	0.3660235
23.50715	2667.419	10.24383	-39.26913	0.3919159
23.5611	2665.24	10.33321	-39.26645	0.4154822
23.61505	2663.044	10.42751	-39.26387	0.4364803
23.669	2660.833	10.52279	-39.26125	0.4547176
23.72295	2658.611	10.61251	-39.25847	0.4700583
23.7769	2656.383	10.69031	-39.25537	0.4824427
23.83084	2654.16	10.75365	-39.2518	0.4918728
23.88479	2651.95	10.79923	-39.2476	0.4984252
23.93874	2649.761	10.8233	-39.24262	0.5022377
23.99269	2647.601	10.82008	-39.23673	0.5035208
24.04664	2645.472	10.78593	-39.22983	0.5025526
24.10059	2643.374	10.72251	-39.22182	0.4996671
24.15454	2641.3	10.6349	-39.21265	0.495253
24.20849	2639.24	10.52916	-39.20231	0.4897341
24.26244	2637.187	10.41543	-39.19081	0.4835597
24.31639	2635.128	10.30486	-39.17816	0.4771717
24.37033	2633.055	10.20809	-39.16444	0.4709749
24.42428	2630.965	10.13081	-39.1497	0.4653145
24.47823	2628.854	10.07263	-39.13404	0.4604526
24.53218	2626.724	10.02882	-39.11757	0.4565536
24.58613	2624.584	9.991552	-39.1004	0.4536658
24.64008	2622.442	9.952737	-39.08265	0.451735
24.69403	2620.303	9.90563	-39.06446	0.4506295
24.74798	2618.168	9.846219	-39.04593	0.4501474
24.80193	2616.041	9.773705	-39.02718	0.4500474
24.85588	2613.926	9.691287	-39.00829	0.4500623
24.90983	2611.828	9.60454	-38.98932	0.4499445
24.96378	2609.75	9.521121	-38.97033	0.4494714
25.01772	2607.688	9.449272	-38.95135	0.4484779
25.07167	2605.631	9.397815	-38.9324	0.4468307
25.12562	2603.569	9.374276	-38.91349	0.4444404
25.17957	2601.493	9.386394	-38.89462	0.4412507
25.23352	2599.4	9.439053	-38.87582	0.4372453
25.28747	2597.289	9.527525	-38.85707	0.4324379
25.34142	2595.166	9.639902	-38.8384	0.4268667
25.39537	2593.039	9.761399	-38.81984	0.4205993
25.44932	2590.914	9.877355	-38.80145	0.413718
25.50327	2588.798	9.977843	-38.78328	0.4063143
25.55721	2586.696	10.06117	-38.76537	0.3985012
25.61116	2584.61	10.1302	-38.74776	0.3903719
25.66511	2582.539	10.18963	-38.7305	0.3820118
25.71906	2580.482	10.24445	-38.71361	0.3734898
25.77301	2578.434	10.30157	-38.6971	0.3648618
25.82696	2576.388	10.36719	-38.68098	0.3561847
25.88091	2574.339	10.44674	-38.66522	0.3475273
25.93486	2572.281	10.54344	-38.64977	0.3389657
25.98881	2570.216	10.65534	-38.63454	0.3306046
26.04276	2568.145	10.77998	-38.61948	0.3225624
26.09671	2566.076	10.91526	-38.60449	0.3149818
26.15066	2564.014	11.05482	-38.58953	0.3080288
26.20461	2561.962	11.18706	-38.57455	0.3018989
26.25855	2559.922	11.30073	-38.55954	0.2968298
26.3125	2557.894	11.3877	-38.54447	0.2930922
26.36645	2555.872	11.44513	-38.52938	0.2909695
26.4204	2553.851	11.47611	-38.51429	0.2907332
26.47435	2551.822	11.49142	-38.49926	0.2926296
26.5283	2549.783	11.50187	-38.48434	0.2968339
26.58225	2547.731	11.5136	-38.46959	0.3034078
26.6362	2545.665	11.52786	-38.45508	0.3123062
26.69015	2543.582	11.54422	-38.44086	0.3233789
26.74409	2541.478	11.5609	-38.427	0.3363935
26.79804	2539.349	11.57686	-38.41354	0.3510474
26.85199	2537.201	11.58859	-38.40054	0.3670028
26.90594	2535.045	11.59253	-38.38801	0.3838965
26.95989	2532.895	11.58447	-38.37597	0.4013759
27.01384	2530.757	11.56194	-38.36444	0.4190852
27.06779	2528.636	11.52312	-38.35341	0.4366885
27.12174	2526.533	11.46616	-38.34287	0.453873
27.17569	2524.443	11.39268	-38.33276	0.4703617
27.22964	2522.361	11.30801	-38.32301	0.4859107
27.28359	2520.283	11.22111	-38.31352	0.5003194
27.33754	2518.203	11.13931	-38.30422	0.5134287
27.39149	2516.115	11.06769	-38.29501	0.5251287
27.44543	2514.017	11.00432	-38.28582	0.5353529
27.49938	2511.912	10.94342	-38.27655	0.5440671
27.55333	2509.804	10.87939	-38.26709	0.5512434
27.60728	2507.699	10.80552	-38.25732	0.5568714
27.66123	2505.604	10.71778	-38.24713	0.5609413
27.71518	2503.527	10.61422	-38.23642	0.5634483
27.76913	2501.468	10.49633	-38.22513	0.5643891
27.82308	2499.429	10.36712	-38.21318	0.5637677
27.87703	2497.408	10.22959	-38.20053	0.5615939
27.93098	2495.399	10.08681	-38.18709	0.5579019
27.98492	2493.398	9.940847	-38.17279	0.5527382
28.03887	2491.405	9.795276	-38.15752	0.5461833
28.09282	2489.413	9.658683	-38.14122	0.5383322
28.14677	2487.419	9.54115	-38.12381	0.5292975
28.20072	2485.418	9.44779	-38.10523	0.5191839
28.25467	2483.408	9.37746	-38.08543	0.5080606
28.30862	2481.384	9.326843	-38.0644	0.4959781
28.36257	2479.347	9.289099	-38.04217	0.4829407
28.41652	2477.298	9.256488	-38.0188	0.4689137
28.47047	2475.243	9.22445	-37.9944	0.4538271
28.52442	2473.187	9.188543	-37.96911	0.4376016
28.57837	2471.133	9.14711	-37.94311	0.4201653
28.63231	2469.081	9.096735	-37.91656	0.4014754
28.68626	2467.025	9.035313	-37.88968	0.381519
28.74021	2464.961	8.966123	-37.86264	0.3603084
28.79416	2462.887	8.897066	-37.83566	0.3379003
28.84811	2460.803	8.836285	-37.8089	0.3143869
28.90206	2458.715	8.787394	-37.78255	0.2899132
28.95601	2456.624	8.755111	-37.75674	0.2646591
29.00996	2454.535	8.744406	-37.73163	0.2388445
29.06391	2452.451	8.757526	-37.70733	0.2127118
29.11786	2450.379	8.790604	-37.68395	0.1865252
29.1718	2448.32	8.838071	-37.66158	0.1605383
29.22575	2446.278	8.895121	-37.64028	0.1350124
29.2797	2444.25	8.957935	-37.62008	0.1102291
29.33365	2442.234	9.026751	-37.601	0.0865178
29.3876	2440.223	9.102181	-37.58306	0.0643765
29.44155	2438.218	9.184114	-37.56627	0.04486472
29.4955	2436.213	9.273939	-37.55061	0.03099986
29.54945	2434.202	9.37146	-37.536	0.02919515
29.6034	2432.178	9.478855	-37.52236	0.03935656
29.65735	2430.142	9.594058	-37.50956	0.05400959
29.7113	2428.099	9.712537	-37.49748	0.06951022
29.76525	2426.054	9.827629	-37.48601	0.08472361
29.81919	2424.012	9.933628	-37.47505	0.09925686
29.87314	2421.973	10.02748	-37.46449	0.112955
29.92709	2419.94	10.10852	-37.45422	0.1257522
29.98104	2417.913	10.17719	-37.44413	0.1376188
30.03499	2415.896	10.23559	-37.43407	0.148539
30.08894	2413.894	10.28715	-37.42392	0.158487
30.14289	2411.912	10.33485	-37.41353	0.1674206
30.19684	2409.95	10.38021	-37.40278	0.1752876
30.25079	2408.001	10.42147	-37.39153	0.1820196
30.30474	2406.053	10.45494	-37.37967	0.187544
30.35869	2404.093	10.47434	-37.36711	0.1917704
30.41263	2402.116	10.47635	-37.35378	0.194617
30.46658	2400.124	10.45991	-37.33967	0.1959969
30.52053	2398.121	10.42904	-37.32479	0.1958281
30.57448	2396.115	10.38927	-37.30917	0.1940232
30.62843	2394.112	10.34295	-37.29286	0.1905026
30.68238	2392.115	10.29069	-37.27592	0.1852002
30.73633	2390.125	10.23422	-37.25843	0.178078
30.79028	2388.144	10.18001	-37.24046	0.1691277
30.84423	2386.172	10.13296	-37.22208	0.158349
30.89818	2384.206	10.09764	-37.20339	0.1457729
30.95213	2382.24	10.07686	-37.18447	0.1314504
31.00607	2380.267	10.07253	-37.16541	0.1154616
31.06002	2378.286	10.08419	-37.14628	0.09791169
31.11397	2376.296	10.10551	-37.12715	0.07894331
31.16792	2374.297	10.12601	-37.10806	0.05873616
31.22187	2372.289	10.13309	-37.08905	0.03752048
31.27582	2370.268	10.12005	-37.07016	0.01559143
31.32977	2368.23	10.08462	-37.0514	0.007336706
31.38372	2366.176	10.02559	-37.03278	0.02986235
31.43767	2364.11	9.944366	-37.01434	0.05250445
31.49162	2362.038	9.843756	-36.99607	0.07480927
31.54557	2359.966	9.731528	-36.97797	0.09648702
31.59951	2357.895	9.616068	-36.96003	0.1172869
31.65346	2355.829	9.506863	-36.94221	0.1369748
31.70741	2353.768	9.415145	-36.9245	0.1553341
31.76136	2351.719	9.350849	-36.90686	0.1721854
31.81531	2349.682	9.320555	-36.88929	0.1873808
31.86926	2347.659	9.326683	-36.87173	0.2008082
31.92321	2345.645	9.365185	-36.85415	0.2123915
31.97716	2343.637	9.427918	-36.8365	0.2220937
32.03111	2341.632	9.503568	-36.81874	0.2299176
32.08506	2339.632	9.579103	-36.8008	0.2359081
32.13901	2337.639	9.647261	-36.78263	0.2401693
32.19296	2335.654	9.70453	-36.76419	0.2428617
32.2469	2333.677	9.753667	-36.74548	0.2441947
32.30085	2331.705	9.79824	-36.72649	0.2444428
32.3548	2329.734	9.84224	-36.70725	0.2439295
32.40875	2327.764	9.888733	-36.68778	0.2430315
32.4627	2325.796	9.938501	-36.66816	0.2421713
32.51665	2323.834	9.990861	-36.64843	0.2417768
32.5706	2321.882	10.04641	-36.6287	0.2422722
32.62455	2319.942	10.10429	-36.60905	0.2440355
32.6785	2318.012	10.15911	-36.58954	0.2473782
32.73244	2316.089	10.20487	-36.57024	0.2525195
32.7864	2314.168	10.23451	-36.55121	0.2595799
32.84034	2312.247	10.24284	-36.53248	0.2685867
32.89429	2310.32	10.22442	-36.51411	0.2794757
32.94824	2308.38	10.17646	-36.49615	0.292125
33.00219	2306.421	10.10057	-36.47866	0.3063717
33.05614	2304.443	10.00138	-36.46172	0.3220532
33.11009	2302.45	9.884225	-36.44537	0.3390069
33.16404	2300.449	9.752077	-36.42962	0.3570878
33.21799	2298.451	9.610574	-36.41451	0.3761548
33.27194	2296.465	9.468112	-36.40005	0.3960682
33.32589	2294.497	9.330096	-36.38624	0.4166752
33.37984	2292.547	9.19993	-36.37309	0.4378068
33.43378	2290.614	9.082761	-36.36058	0.4592767
33.48773	2288.694	8.988308	-36.3487	0.4808914
33.54168	2286.781	8.925845	-36.33744	0.502424
33.59563	2284.869	8.897999	-36.32677	0.5236396
33.64958	2282.953	8.901054	-36.31668	0.5442818
33.70353	2281.03	8.930182	-36.30713	0.564081
33.75748	2279.098	8.982499	-36.29807	0.5827309
33.81143	2277.156	9.055378	-36.28942	0.5999339
33.86538	2275.203	9.1431	-36.28111	0.6153734
33.91933	2273.242	9.241138	-36.27303	0.628747
33.97327	2271.277	9.348907	-36.26512	0.6397587
34.02723	2269.315	9.465173	-36.2573	0.6481367
34.08117	2267.362	9.586331	-36.2495	0.6536479
34.13512	2265.423	9.70474	-36.24166	0.6561034
34.18907	2263.505	9.814696	-36.23374	0.6553662
34.24302	2261.606	9.913661	-36.22572	0.651341
34.29697	2259.723	10.00063	-36.21757	0.6439931
34.35092	2257.842	10.07581	-36.20929	0.6333435
34.40487	2255.953	10.1384	-36.20087	0.6194688
34.45882	2254.044	10.18624	-36.19232	0.6025015
34.51277	2252.11	10.21569	-36.18365	0.5826253
34.56672	2250.15	10.22412	-36.17488	0.5600771
34.62067	2248.164	10.2108	-36.16604	0.5351345
34.67461	2246.155	10.17424	-36.15712	0.5081136
34.72856	2244.127	10.11239	-36.14814	0.4793609
34.78251	2242.09	10.02513	-36.13908	0.4492504
34.83646	2240.053	9.916014	-36.12993	0.4181776
34.89041	2238.021	9.790483	-36.12066	0.3865476
34.94436	2236.001	9.654495	-36.11128	0.3547803
34.99831	2233.994	9.512033	-36.1018	0.3233154
35.05226	2232.002	9.365989	-36.09221	0.2926128
35.1062	2230.022	9.223619	-36.08255	0.2631622
35.16016	2228.051	9.093848	-36.0728	0.2355049
35.2141	2226.087	8.984611	-36.06297	0.2102377
35.26805	2224.125	8.901874	-36.05302	0.18802
35.322	2222.162	8.844328	-36.04289	0.1695676
35.37595	2220.194	8.807776	-36.03252	0.1555769
35.4299	2218.219	8.78764	-36.02182	0.1465378
35.48385	2216.237	8.780665	-36.0107	0.1425087
35.5378	2214.252	8.782863	-35.99905	0.1430077
35.59175	2212.267	8.789687	-35.98677	0.1471
35.6457	2210.288	8.798659	-35.97375	0.1536642
35.69965	2208.323	8.811283	-35.9599	0.1616294
35.7536	2206.373	8.828582	-35.94512	0.1701271
35.80754	2204.441	8.84962	-35.92929	0.1785021
35.8615	2202.527	8.86965	-35.91229	0.1862968
35.91544	2200.631	8.885558	-35.89402	0.1932153
35.96939	2198.749	8.897867	-35.87436	0.1990886
36.02334	2196.874	8.908164	-35.85321	0.2038424
36.07729	2195	8.917048	-35.83049	0.2074553
36.13124	2193.125	8.9226	-35.80614	0.2099506
36.18519	2191.245	8.924515	-35.78009	0.2113694
36.23914	2189.356	8.923687	-35.75232	0.2117802
36.29309	2187.461	8.922656	-35.72285	0.2112646
36.34703	2185.56	8.923415	-35.69172	0.2098978
36.40099	2183.653	8.926202	-35.65899	0.2077485
36.45493	2181.743	8.927696	-35.62481	0.2048704
36.50888	2179.826	8.922467	-35.58932	0.2013025
36.56283	2177.906	8.910712	-35.55272	0.1970577
36.61678	2175.981	8.897789	-35.51519	0.1921328
36.67073	2174.052	8.887198	-35.47696	0.18651
36.72468	2172.122	8.878441	-35.43822	0.1801665
36.77863	2170.193	8.87026	-35.39918	0.1730828
36.83258	2168.269	8.861838	-35.36005	0.1652247
36.88653	2166.349	8.854539	-35.32099	0.1565805
36.94048	2164.429	8.852386	-35.2822	0.1471336
36.99443	2162.508	8.857775	-35.24385	0.1368905
37.04837	2160.582	8.876416	-35.20614	0.1258803
37.10232	2158.65	8.913266	-35.16925	0.1141704
37.15627	2156.713	8.968748	-35.13335	0.1018624
37.21022	2154.776	9.041138	-35.0986	0.08909871
37.26417	2152.843	9.124511	-35.06512	0.07607167
37.31812	2150.918	9.211619	-35.03301	0.06306278
37.37207	2149.002	9.297574	-35.00237	0.05052878
37.42602	2147.099	9.379761	-34.97325	0.03933652
37.47997	2145.205	9.454165	-34.94568	0.03128349
37.53392	2143.315	9.517358	-34.91969	0.02919333
37.58786	2141.425	9.56515	-34.89527	0.03405323
37.64182	2139.535	9.59629	-34.87239	0.04338245
37.69576	2137.643	9.612143	-34.851	0.05469595
37.74971	2135.747	9.619448	-34.83104	0.06674048
37.80366	2133.847	9.624773	-34.8124	0.07894642
37.85761	2131.947	9.631655	-34.79499	0.09103225
37.91156	2130.053	9.640986	-34.77867	0.1028625
37.96551	2128.167	9.652006	-34.76331	0.1143674
38.01946	2126.292	9.662663	-34.74874	0.1255195
38.07341	2124.428	9.667138	-34.73479	0.1363042
38.12736	2122.578	9.657497	-34.72126	0.1467138
38.1813	2120.74	9.626535	-34.70795	0.1567406
38.23526	2118.913	9.569509	-34.69468	0.1663675
38.2892	2117.094	9.487637	-34.68126	0.1755675
38.34315	2115.28	9.387048	-34.66755	0.1843242
38.3971	2113.468	9.276109	-34.65344	0.1926319
38.45105	2111.656	9.158246	-34.63885	0.2004829
38.505	2109.846	9.03557	-34.62372	0.2078753
38.55895	2108.037	8.913134	-34.60802	0.2148029
38.6129	2106.231	8.797905	-34.59174	0.2212701
38.66685	2104.427	8.697954	-34.57489	0.2272813
38.72079	2102.623	8.621954	-34.55751	0.2328492
38.77475	2100.819	8.572864	-34.53965	0.2380007
38.82869	2099.015	8.546734	-34.52138	0.2427956
38.88264	2097.211	8.536527	-34.50279	0.2473069
38.93659	2095.403	8.532604	-34.48397	0.251631
38.99054	2093.589	8.52885	-34.46498	0.2558583
39.04449	2091.768	8.52202	-34.44592	0.260086
39.09844	2089.94	8.512889	-34.42687	0.2643899
39.15239	2088.103	8.501736	-34.40791	0.2688292
39.20634	2086.256	8.491096	-34.38914	0.2734438
39.26029	2084.396	8.485253	-34.37066	0.2782796
39.31424	2082.522	8.487204	-34.35256	0.28338
39.36819	2080.637	8.500032	-34.33492	0.28879
39.42213	2078.741	8.526584	-34.31784	0.294552
39.47609	2076.837	8.569582	-34.30138	0.3006903
39.53003	2074.928	8.62979	-34.28561	0.3072242
39.58398	2073.015	8.70516	-34.2706	0.3141469
39.63793	2071.098	8.791253	-34.25639	0.3214455
39.69188	2069.176	8.882001	-34.24303	0.3290979
39.74583	2067.252	8.970362	-34.23053	0.3370697
39.79978	2065.327	9.051158	-34.21889	0.3453302
39.85373	2063.405	9.121472	-34.20809	0.35385
39.90768	2061.487	9.181269	-34.1981	0.3626095
39.96162	2059.575	9.233767	-34.18889	0.3715988
40.01558	2057.67	9.282105	-34.18036	0.3808043
40.06952	2055.771	9.327457	-34.17241	0.3902151
40.12347	2053.88	9.371366	-34.16491	0.3998162
40.17742	2052.002	9.417155	-34.15771	0.4095809
40.23137	2050.141	9.465771	-34.15066	0.4194817
40.28532	2048.299	9.516942	-34.14358	0.4294787
40.33927	2046.475	9.57232	-34.1363	0.4395198
40.39322	2044.664	9.631702	-34.12867	0.4495368
40.44717	2042.858	9.69333	-34.12054	0.4594499
40.50112	2041.049	9.754894	-34.11176	0.4691598
40.55507	2039.234	9.813112	-34.1022	0.4785424
40.60902	2037.415	9.864869	-34.09173	0.4874704
40.66296	2035.592	9.908389	-34.08025	0.4958089
40.71692	2033.77	9.940784	-34.06766	0.5034297
40.77086	2031.955	9.957155	-34.05389	0.5102275
40.82481	2030.147	9.953857	-34.0389	0.5161322
40.87876	2028.345	9.929194	-34.02266	0.5211056
40.93271	2026.546	9.885972	-34.00515	0.5251478
40.98666	2024.748	9.826968	-33.98635	0.5282804
41.04061	2022.949	9.758074	-33.9663	0.5305371
41.09456	2021.152	9.685444	-33.945	0.5319653
41.14851	2019.356	9.612141	-33.92253	0.5326283
41.20245	2017.563	9.541746	-33.89896	0.5325756
41.2564	2015.774	9.476195	-33.87436	0.5318644
41.31035	2013.984	9.416947	-33.84885	0.5305544
41.3643	2012.189	9.362694	-33.82252	0.5287125
41.41825	2010.386	9.309335	-33.79547	0.5264016
41.4722	2008.577	9.25024	-33.76779	0.5236719
41.52615	2006.764	9.180091	-33.7396	0.520574
41.5801	2004.95	9.0959	-33.71101	0.5171398
41.63405	2003.132	8.993792	-33.68214	0.5133874
41.688	2001.309	8.869414	-33.65316	0.5093121
41.74195	1999.479	8.723657	-33.62418	0.5048866
41.79589	1997.642	8.564087	-33.59537	0.500068
41.84985	1995.8	8.40145	-33.56685	0.4947875
41.90379	1993.959	8.247272	-33.53875	0.4889546
41.95774	1992.123	8.111297	-33.51118	0.4824681
42.01169	1990.294	7.999835	-33.48426	0.4752115
42.06564	1988.47	7.915674	-33.45803	0.467048
42.11959	1986.649	7.859846	-33.43253	0.4578439
42.17354	1984.826	7.831482	-33.40776	0.4474785
42.22749	1983.001	7.824291	-33.38371	0.4358596
42.28144	1981.176	7.829839	-33.36032	0.4229212
42.33539	1979.352	7.84079	-33.33752	0.4086313
42.38934	1977.53	7.850961	-33.31524	0.3929849
42.44328	1975.708	7.853959	-33.29337	0.3760113
42.49723	1973.882	7.846163	-33.27179	0.3577749
42.55118	1972.049	7.828513	-33.25038	0.3383556
42.60513	1970.21	7.806795	-33.22903	0.3178639
42.65908	1968.37	7.790669	-33.20763	0.2964516
42.71303	1966.535	7.790342	-33.18611	0.2743002
42.76698	1964.71	7.810637	-33.16436	0.2516211
42.82093	1962.901	7.852143	-33.14232	0.2286494
42.87488	1961.109	7.91316	-33.11992	0.2056324
42.92883	1959.332	7.990434	-33.09708	0.1828476
42.98278	1957.565	8.080524	-33.07372	0.1605953
43.03672	1955.804	8.178197	-33.04978	0.1392081
43.09068	1954.043	8.276742	-33.02522	0.119065
43.14462	1952.279	8.368252	-33.00001	0.100621
43.19857	1950.512	8.441813	-32.97412	0.08444415
43.25252	1948.746	8.487831	-32.94753	0.07123121
43.30647	1946.983	8.503515	-32.9202	0.06174773
43.36042	1945.222	8.490837	-32.89211	0.05650539
43.41437	1943.459	8.45611	-32.86322	0.05523673
43.46832	1941.697	8.408595	-32.83349	0.05676739
43.52227	1939.941	8.360079	-32.80292	0.05956597
43.57622	1938.194	8.321248	-32.7715	0.06230587
43.63017	1936.457	8.297134	-32.73927	0.06404778
43.68411	1934.729	8.287533	-32.70628	0.064188
43.73806	1933.007	8.291414	-32.67262	0.06236666
43.79201	1931.289	8.306316	-32.63835	0.05844838
43.84596	1929.569	8.330062	-32.60357	0.05250215
43.89991	1927.844	8.359341	-32.56838	0.04493425
43.95386	1926.112	8.388865	-32.53289	0.03681281
44.00781	1924.374	8.417602	-32.49723	0.03073289
44.06176	1922.629	8.447304	-32.46155	0.03123844
44.11571	1920.874	8.480714	-32.42598	0.04032433
44.16965	1919.109	8.519028	-32.39067	0.05514021
44.22361	1917.337	8.559844	-32.35572	0.07291187
44.27755	1915.56	8.599437	-32.32127	0.0921561
44.3315	1913.781	8.637186	-32.28743	0.1120156
44.38545	1912.005	8.675109	-32.2543	0.1318941
44.4394	1910.235	8.7161	-32.22198	0.1513281
44.49335	1908.47	8.761861	-32.19054	0.1699263
44.5473	1906.709	8.811821	-32.16007	0.1873688
44.60125	1904.951	8.864303	-32.13063	0.2033989
44.6552	1903.196	8.918342	-32.10229	0.2178221
44.70915	1901.444	8.971981	-32.0751	0.2305066
44.7631	1899.694	9.022364	-32.04913	0.2413774
44.81704	1897.949	9.063331	-32.02441	0.2504108
44.87099	1896.21	9.087957	-32.00095	0.2576431
44.92494	1894.477	9.092759	-31.97876	0.263155
44.97889	1892.753	9.075125	-31.95782	0.2670741
45.03284	1891.039	9.032411	-31.9381	0.2695569
45.08679	1889.335	8.966981	-31.91958	0.2708003
45.14074	1887.638	8.88296	-31.90223	0.2710202
45.19469	1885.942	8.783807	-31.88602	0.2704469
45.24864	1884.244	8.674787	-31.87092	0.2693232
45.30259	1882.542	8.560334	-31.85689	0.2678973
45.35654	1880.833	8.44381	-31.84388	0.2664253
45.41048	1879.119	8.328479	-31.83182	0.2651784
45.46444	1877.4	8.215518	-31.82064	0.2644429
45.51838	1875.682	8.106719	-31.81025	0.264504
45.57233	1873.97	8.004363	-31.80059	0.2656283
45.62628	1872.263	7.909935	-31.79157	0.2680294
45.68023	1870.56	7.82499	-31.78311	0.2718434
45.73418	1868.863	7.748537	-31.77515	0.2771038
45.78813	1867.17	7.679936	-31.76763	0.2837328
45.84208	1865.483	7.616852	-31.76048	0.29158
45.89603	1863.798	7.55491	-31.75365	0.3004206
45.94998	1862.118	7.4889	-31.7471	0.3099861
46.00393	1860.446	7.417352	-31.74081	0.3199691
46.05787	1858.779	7.34062	-31.73477	0.3300541
46.11182	1857.113	7.261273	-31.72898	0.3399176
46.16577	1855.448	7.184152	-31.72342	0.3492478
46.21972	1853.783	7.114289	-31.7181	0.3577563
46.27367	1852.116	7.058052	-31.71299	0.3652133
46.32762	1850.444	7.021625	-31.7081	0.3714318
46.38157	1848.769	7.008729	-31.70343	0.3762943
46.43552	1847.093	7.01921	-31.69897	0.3797342
46.48947	1845.417	7.049718	-31.69472	0.3817492
46.54342	1843.737	7.095762	-31.69067	0.3823783
46.59737	1842.053	7.157319	-31.68682	0.3817043
46.65131	1840.362	7.234227	-31.68315	0.3798291
46.70527	1838.666	7.321741	-31.67962	0.3768604
46.75921	1836.966	7.411617	-31.67618	0.372908
46.81316	1835.26	7.496071	-31.67276	0.3680789
46.86711	1833.548	7.571639	-31.66928	0.3624719
46.92106	1831.826	7.638696	-31.66564	0.3561773
46.97501	1830.093	7.699454	-31.66174	0.3492696
47.02896	1828.351	7.757118	-31.65748	0.341819
47.08291	1826.601	7.814549	-31.65277	0.3338707
47.13686	1824.844	7.873891	-31.64752	0.3254646
47.19081	1823.079	7.938169	-31.64166	0.3166314
47.24475	1821.307	8.009953	-31.63513	0.3074126
47.2987	1819.535	8.090142	-31.62786	0.2978553
47.35265	1817.766	8.177946	-31.61979	0.288016
47.4066	1816.003	8.270571	-31.61087	0.2779504
47.46055	1814.247	8.366112	-31.60105	0.2677242
47.5145	1812.502	8.463747	-31.59029	0.2574157
47.56845	1810.768	8.561881	-31.57856	0.2471203
47.6224	1809.046	8.65697	-31.56583	0.2369476
47.67635	1807.338	8.744765	-31.55206	0.2270169
47.7303	1805.64	8.823832	-31.53724	0.2174491
47.78424	1803.949	8.89129	-31.52134	0.2083506
47.8382	1802.259	8.944868	-31.50438	0.1997942
47.89214	1800.565	8.985524	-31.48636	0.1918179
47.94609	1798.867	9.016596	-31.46731	0.1844262
48.00004	1797.166	9.039444	-31.44727	0.1776119
48.05399	1795.458	9.053625	-31.4263	0.1713767
48.10794	1793.742	9.058114	-31.40446	0.1657494
48.16189	1792.021	9.049764	-31.38182	0.1608262
48.21584	1790.3	9.025705	-31.35845	0.1567855
48.26979	1788.579	8.98563	-31.33446	0.1538844
48.32374	1786.859	8.933233	-31.30996	0.1524356
48.37769	1785.14	8.876108	-31.28506	0.1527646
48.43164	1783.427	8.819232	-31.25988	0.1551369
48.48558	1781.718	8.761731	-31.23451	0.1597019
48.53953	1780.013	8.704652	-31.20906	0.1664491
48.59348	1778.31	8.651286	-31.18361	0.1752096
48.64743	1776.609	8.601203	-31.1582	0.1856891
48.70138	1774.912	8.552358	-31.13289	0.1975204
48.75533	1773.216	8.502431	-31.10772	0.2103042
48.80928	1771.521	8.449806	-31.08271	0.2236433
48.86323	1769.826	8.392578	-31.05788	0.2371744
48.91718	1768.135	8.331267	-31.03323	0.2505906
48.97113	1766.453	8.269791	-31.00878	0.263634
49.02507	1764.784	8.209769	-30.98454	0.2761023
49.07903	1763.128	8.149011	-30.96051	0.2878348
49.13297	1761.486	8.084507	-30.9367	0.2987083
49.18692	1759.855	8.016786	-30.91312	0.3086189
49.24087	1758.231	7.95134	-30.88978	0.3174612
49.29482	1756.613	7.894897	-30.86667	0.3251354
49.34877	1755.001	7.853151	-30.8438	0.3315538
49.40272	1753.397	7.82986	-30.82116	0.3366429
49.45667	1751.798	7.82477	-30.79875	0.3403406
49.51062	1750.2	7.835425	-30.77657	0.3425999
49.56457	1748.601	7.857524	-30.75461	0.3433917
49.61852	1746.996	7.884977	-30.73287	0.342701
49.67247	1745.384	7.914447	-30.71134	0.3405357
49.72641	1743.765	7.941773	-30.69001	0.3369336
49.78036	1742.141	7.961306	-30.66888	0.3319546
49.83431	1740.516	7.970869	-30.64795	0.325692
49.88826	1738.894	7.969418	-30.62724	0.3182703
49.94221	1737.276	7.955678	-30.60675	0.3098433
49.99616	1735.659	7.92908	-30.58648	0.3005925
50.05011	1734.043	7.891389	-30.56643	0.2907203
50.10406	1732.423	7.848024	-30.54658	0.2804444
50.158	1730.797	7.805241	-30.5269	0.2699997
50.21196	1729.163	7.766647	-30.50737	0.259631
50.2659	1727.521	7.734218	-30.48794	0.2495791
50.31985	1725.87	7.709121	-30.46856	0.240075
50.3738	1724.209	7.691578	-30.44918	0.2313163
50.42775	1722.54	7.679145	-30.42972	0.2234573
50.4817	1720.862	7.669901	-30.4101	0.216604
50.53565	1719.176	7.663412	-30.39025	0.2108006
50.5896	1717.485	7.659044	-30.37005	0.2060363
50.64355	1715.794	7.655966	-30.34943	0.2022609
50.6975	1714.106	7.653767	-30.32828	0.1993977
50.75145	1712.419	7.649126	-30.30655	0.1973562
50.8054	1710.734	7.638419	-30.28414	0.1960542
50.85934	1709.049	7.618711	-30.26102	0.1954234
50.9133	1707.365	7.592258	-30.23715	0.1954165
50.96724	1705.685	7.566112	-30.21248	0.1959959
51.02119	1704.014	7.547537	-30.187	0.1971341
51.07514	1702.353	7.5414	-30.16072	0.1987903
51.12909	1700.705	7.551271	-30.13365	0.2009239
51.18304	1699.068	7.578792	-30.10582	0.203472
51.23699	1697.437	7.619465	-30.07728	0.2063558
51.29094	1695.81	7.666732	-30.04807	0.2094767
51.34489	1694.185	7.71551	-30.01826	0.212718
51.39883	1692.56	7.760567	-29.98792	0.215962
51.45279	1690.935	7.797153	-29.95712	0.2190937
51.50673	1689.311	7.821718	-29.92595	0.2220081
51.56068	1687.691	7.830729	-29.89451	0.2245955
51.61463	1686.075	7.825231	-29.86286	0.2267488
51.66858	1684.46	7.810505	-29.8311	0.2283734
51.72253	1682.843	7.79281	-29.79932	0.2293996
51.77648	1681.227	7.779535	-29.76764	0.2297896
51.83043	1679.612	7.776516	-29.73617	0.2295264
51.88438	1678	7.786607	-29.70509	0.2286108
51.93833	1676.392	7.810027	-29.67451	0.2270601
51.99228	1674.785	7.84281	-29.64458	0.224905
52.04623	1673.18	7.87733	-29.61543	0.2221851
52.10017	1671.577	7.904479	-29.58717	0.218948
52.15412	1669.974	7.915277	-29.5599	0.2152461
52.20807	1668.37	7.903047	-29.53371	0.2111386
52.26202	1666.764	7.864172	-29.50865	0.2066889
52.31597	1665.155	7.799914	-29.48475	0.2019541
52.36992	1663.541	7.715333	-29.46201	0.1969973
52.42387	1661.923	7.616684	-29.44042	0.1918824
52.47782	1660.303	7.511309	-29.41992	0.1866776
52.53177	1658.689	7.406457	-29.40043	0.1814622
52.58572	1657.086	7.309	-29.38186	0.176322
52.63966	1655.501	7.22633	-29.3641	0.171352
52.69361	1653.936	7.162533	-29.34702	0.1666552
52.74756	1652.397	7.118683	-29.33047	0.1623246
52.80151	1650.883	7.09432	-29.31434	0.1584333
52.85546	1649.39	7.085419	-29.29849	0.1550252
52.90941	1647.914	7.085228	-29.28279	0.1521032
52.96336	1646.45	7.085769	-29.2671	0.1496199
53.01731	1644.993	7.080184	-29.25132	0.1474749
53.07126	1643.538	7.062415	-29.23539	0.1455229
53.12521	1642.08	7.029812	-29.21923	0.1436002
53.17916	1640.614	6.98291	-29.20283	0.1415457
53.2331	1639.137	6.925184	-29.18615	0.1392177
53.28706	1637.649	6.864984	-29.16919	0.1365006
53.341	1636.15	6.812072	-29.15199	0.133324
53.39495	1634.639	6.775179	-29.13457	0.1296584
53.4489	1633.115	6.760277	-29.11699	0.1255122
53.50285	1631.582	6.768138	-29.09933	0.1209122
53.5568	1630.038	6.797232	-29.08166	0.1159031
53.61075	1628.481	6.846679	-29.06406	0.110545
53.6647	1626.911	6.912605	-29.04659	0.104907
53.71865	1625.327	6.987401	-29.02931	0.09906274
53.77259	1623.729	7.062148	-29.0123	0.0930913
53.82655	1622.118	7.128977	-28.99562	0.08708354
53.88049	1620.496	7.183285	-28.97932	0.08114626
53.93444	1618.862	7.222486	-28.96346	0.07541963
53.98839	1617.215	7.245121	-28.9481	0.07008705
54.04234	1615.558	7.250325	-28.93325	0.06537422
54.09629	1613.892	7.241616	-28.91897	0.06153522
54.15024	1612.221	7.226611	-28.90528	0.05881395
54.20419	1610.553	7.212427	-28.89219	0.05738172
54.25814	1608.892	7.205026	-28.87973	0.05729728
54.31209	1607.239	7.207789	-28.86789	0.0584939
54.36604	1605.593	7.222178	-28.85666	0.06080134
54.41999	1603.954	7.249711	-28.84603	0.06400586
54.47393	1602.325	7.290823	-28.83593	0.06789753
54.52789	1600.708	7.34358	-28.8263	0.07230198
54.58183	1599.106	7.40486	-28.81705	0.0770827
54.63578	1597.517	7.472658	-28.80806	0.08213828
54.68973	1595.94	7.543769	-28.7992	0.08738445
54.74368	1594.375	7.613197	-28.79031	0.09274846
54.79763	1592.822	7.675305	-28.78121	0.09816097
54.85158	1591.281	7.725943	-28.77173	0.103536
54.90553	1589.75	7.76257	-28.76169	0.108778
54.95948	1588.227	7.785186	-28.75091	0.1137737
55.01342	1586.711	7.792427	-28.73923	0.1184072
55.06738	1585.199	7.785468	-28.72651	0.1225596
55.12132	1583.688	7.766268	-28.71263	0.1261116
55.17527	1582.178	7.736516	-28.69747	0.1289499
55.22922	1580.67	7.699266	-28.68094	0.1309604
55.28317	1579.162	7.658288	-28.66299	0.1320465
55.33712	1577.654	7.618174	-28.64359	0.1321379
55.39107	1576.143	7.583364	-28.62275	0.1312123
55.44502	1574.633	7.554606	-28.6005	0.1292941
55.49897	1573.123	7.529399	-28.57689	0.1264625
55.55292	1571.614	7.505913	-28.552	0.1228558
55.60686	1570.105	7.483123	-28.52592	0.1186689
55.66082	1568.594	7.460467	-28.49874	0.1141501
55.71476	1567.082	7.436217	-28.47054	0.109574
55.76871	1565.571	7.407092	-28.44141	0.1052336
55.82266	1564.062	7.370245	-28.4114	0.1014149
55.87661	1562.553	7.325285	-28.3806	0.098363
55.93056	1561.042	7.275066	-28.34905	0.09623493
55.98451	1559.529	7.222718	-28.31684	0.09506807
56.03846	1558.014	7.171476	-28.28403	0.09476054
56.09241	1556.497	7.124408	-28.25071	0.09508744
56.14636	1554.984	7.08366	-28.21696	0.0957416
56.20031	1553.474	7.052609	-28.18287	0.09637944
56.25425	1551.968	7.03439	-28.14857	0.09665862
56.3082	1550.462	7.031452	-28.11417	0.09626704
56.36215	1548.954	7.044095	-28.0798	0.09494299
56.4161	1547.443	7.073717	-28.04558	0.09247901
56.47005	1545.926	7.119784	-28.0116	0.08872113
56.524	1544.406	7.177861	-27.97799	0.0835852
56.57795	1542.882	7.243018	-27.94481	0.07705535
56.6319	1541.353	7.309265	-27.91216	0.06922935
56.68585	1539.82	7.368163	-27.88011	0.0603806
56.7398	1538.281	7.411124	-27.8487	0.05109888
56.79375	1536.739	7.433228	-27.81797	0.04261503
56.84769	1535.196	7.434874	-27.78795	0.03732217
56.90165	1533.656	7.419161	-27.75867	0.03832586
56.95559	1532.123	7.388335	-27.73014	0.046417
57.00954	1530.598	7.345483	-27.70238	0.05945339
57.06349	1529.078	7.295128	-27.67539	0.07523783
57.11744	1527.561	7.24156	-27.64916	0.09243685
57.17139	1526.046	7.18906	-27.62367	0.1102392
57.22534	1524.532	7.141634	-27.59887	0.1280827
57.27929	1523.016	7.100753	-27.57475	0.145527
57.33324	1521.496	7.068789	-27.55127	0.1622061
57.38719	1519.973	7.045983	-27.52842	0.1777978
57.44114	1518.448	7.030208	-27.50616	0.1920257
57.49508	1516.922	7.018465	-27.48445	0.2046615
57.54903	1515.399	7.008522	-27.46323	0.215525
57.60298	1513.879	6.99969	-27.44243	0.2244887
57.65693	1512.367	6.99399	-27.42195	0.2314702
57.71088	1510.867	6.993458	-27.40167	0.2364308
57.76483	1509.382	6.998487	-27.38146	0.2393744
57.81878	1507.914	7.008384	-27.36116	0.2403412
57.87273	1506.46	7.02171	-27.3406	0.2394096
57.92668	1505.015	7.03665	-27.31958	0.236674
57.98063	1503.578	7.053753	-27.29794	0.2322478
58.03458	1502.146	7.075716	-27.27547	0.2262513
58.08852	1500.716	7.104803	-27.25199	0.2188118
58.14248	1499.287	7.142472	-27.22733	0.2100555
58.19642	1497.861	7.190635	-27.20135	0.2001122
58.25037	1496.44	7.248924	-27.17389	0.1891196
58.30432	1495.027	7.313836	-27.14488	0.177225
58.35827	1493.624	7.381894	-27.11423	0.1645876
58.41222	1492.231	7.45049	-27.08192	0.1513707
58.46617	1490.847	7.51708	-27.04793	0.1377537
58.52012	1489.467	7.578091	-27.01231	0.1239291
58.57407	1488.088	7.633799	-26.97513	0.1101027
58.62802	1486.706	7.684376	-26.93649	0.09650071
58.68196	1485.318	7.730325	-26.89649	0.08336162
58.73591	1483.921	7.772741	-26.85528	0.07096712
58.78986	1482.51	7.811883	-26.81299	0.05967624
58.84381	1481.085	7.848063	-26.76977	0.04998548
58.89776	1479.645	7.880993	-26.72576	0.04261199
58.95171	1478.193	7.911079	-26.68113	0.03841073
59.00566	1476.731	7.940311	-26.63601	0.03793253
59.05961	1475.264	7.969348	-26.59057	0.04086331
59.11356	1473.792	7.998753	-26.54494	0.04622105
59.16751	1472.32	8.028681	-26.49926	0.05305547
59.22145	1470.847	8.057446	-26.45365	0.06077225
59.27541	1469.376	8.085144	-26.40825	0.06908729
59.32935	1467.904	8.111103	-26.36317	0.07791477
59.3833	1466.426	8.133072	-26.31854	0.08729886
59.43725	1464.939	8.146459	-26.27442	0.09734895
59.4912	1463.44	8.148554	-26.23088	0.1081981
59.54515	1461.928	8.13818	-26.18791	0.1199798
59.5991	1460.405	8.115726	-26.14551	0.1328047
59.65305	1458.878	8.082123	-26.1036	0.1467599
59.707	1457.354	8.037101	-26.06211	0.161897
59.76095	1455.838	7.980024	-26.02092	0.1782249
59.8149	1454.335	7.912162	-25.97988	0.1956974
59.86884	1452.846	7.836618	-25.93882	0.2142135
59.92279	1451.373	7.756298	-25.89756	0.2336258
59.97674	1449.918	7.672558	-25.85589	0.2537389
60.03069	1448.485	7.584533	-25.81359	0.2743219
60.08464	1447.075	7.490922	-25.77044	0.2951182
60.13859	1445.687	7.395351	-25.72622	0.3158381
60.19254	1444.318	7.30211	-25.68069	0.3361739
60.24649	1442.964	7.213918	-25.63364	0.3557936
60.30044	1441.622	7.132879	-25.58486	0.3743501
60.35439	1440.289	7.061061	-25.53415	0.3914996
60.40834	1438.966	7.001698	-25.48132	0.4069187
60.46228	1437.652	6.953951	-25.42624	0.4203129
60.51624	1436.345	6.9146	-25.36881	0.4314254
60.57018	1435.047	6.879008	-25.309	0.4400335
60.62413	1433.754	6.844007	-25.24679	0.4459521
60.67808	1432.467	6.809967	-25.18223	0.4490416
60.73203	1431.185	6.778701	-25.11538	0.4492049
60.78598	1429.905	6.753201	-25.04632	0.4463865
60.83993	1428.628	6.735069	-24.97516	0.4405801
60.89388	1427.348	6.723664	-24.902	0.4318307
60.94783	1426.064	6.717952	-24.82692	0.4202441
61.00178	1424.771	6.718869	-24.75003	0.4059787
61.05573	1423.463	6.728198	-24.6714	0.3892405
61.10967	1422.137	6.747189	-24.59114	0.3702796
61.16362	1420.795	6.772697	-24.50933	0.3493796
61.21757	1419.444	6.802367	-24.42607	0.3268532
61.27152	1418.087	6.833574	-24.34144	0.303034
61.32547	1416.731	6.864023	-24.25554	0.2782752
61.37942	1415.377	6.891163	-24.16844	0.2529511
61.43337	1414.028	6.912937	-24.0802	0.2274731
61.48732	1412.683	6.929057	-23.99088	0.2022986
61.54127	1411.341	6.939435	-23.90051	0.1779556
61.59521	1410.003	6.946153	-23.80908	0.1550604
61.64917	1408.667	6.952317	-23.71654	0.1343633
61.70311	1407.334	6.958254	-23.62281	0.1167545
61.75706	1406.004	6.961673	-23.52777	0.1032176
61.81101	1404.68	6.961714	-23.43124	0.09460689
61.86496	1403.36	6.961536	-23.33303	0.09120668
61.91891	1402.046	6.964992	-23.23291	0.09243847
61.97286	1400.74	6.971121	-23.13062	0.0970566
62.02681	1399.443	6.976502	-23.02591	0.1036992
62.08076	1398.158	6.980539	-22.9185	0.1112846
62.13471	1396.889	6.985693	-22.80813	0.1191009
62.18866	1395.637	6.993731	-22.69453	0.1267838
62.24261	1394.403	7.004456	-22.57741	0.1342257
62.29655	1393.183	7.017193	-22.45647	0.1414963
62.3505	1391.976	7.034725	-22.33139	0.1487666
62.40445	1390.778	7.061637	-22.20185	0.1562377
62.4584	1389.586	7.099923	-22.06752	0.164101
62.51235	1388.398	7.148139	-21.92812	0.1724883
62.5663	1387.209	7.202465	-21.78337	0.1814566
62.62025	1386.014	7.259653	-21.63305	0.1909781
62.6742	1384.812	7.317163	-21.47696	0.2009534
62.72815	1383.603	7.374032	-21.31492	0.2112218
62.7821	1382.392	7.431386	-21.14679	0.2215848
62.83604	1381.182	7.490041	-20.97243	0.2318114
62.89	1379.982	7.549597	-20.79168	0.241661
62.94394	1378.797	7.609249	-20.60441	0.2508933
62.99789	1377.628	7.668953	-20.41045	0.2592649
63.05184	1376.475	7.729496	-20.20963	0.2665637
63.10579	1375.334	7.79019	-20.00178	0.2726151
63.15974	1374.201	7.849955	-19.78667	0.27729
63.21369	1373.073	7.907558	-19.56408	0.2805208
63.26764	1371.948	7.961154	-19.33378	0.2822615
63.32159	1370.826	8.006429	-19.09548	0.282525
63.37554	1369.708	8.038551	-18.84889	0.281346
63.42949	1368.6	8.053473	-18.59371	0.2787908
63.48344	1367.504	8.046515	-18.32959	0.2749531
63.53738	1366.423	8.015123	-18.05617	0.2699497
63.59133	1365.361	7.960826	-17.77305	0.263926
63.64528	1364.317	7.886798	-17.4798	0.2570401
63.69923	1363.291	7.794856	-17.17595	0.249487
63.75318	1362.285	7.684693	-16.86101	0.2414669
63.80713	1361.296	7.557497	-16.53445	0.2332176
63.86108	1360.325	7.418407	-16.19572	0.2249856
63.91503	1359.37	7.273059	-15.84427	0.2170516
63.96898	1358.43	7.12496	-15.47952	0.2096706
64.02293	1357.502	6.976633	-15.10089	0.2030888
64.07687	1356.586	6.83285	-14.70781	0.1975252
64.13082	1355.686	6.69803	-14.29974	0.1931594
64.18478	1354.807	6.573298	-13.87609	0.1901474
64.23872	1353.955	6.456269	-13.43632	0.1885823
64.29267	1353.134	6.34334	-12.97985	0.1885028
64.34662	1352.343	6.23453	-12.5061	0.1899411
64.40057	1351.582	6.132789	-12.01449	0.1928729
64.45452	1350.849	6.041137	-11.50448	0.1973029
64.50847	1350.137	5.963943	-10.97552	0.2032136
64.56242	1349.445	5.904811	-10.42709	0.2106408
64.61636	1348.765	5.8633	-9.858692	0.2195902
64.67032	1348.095	5.837701	-9.269858	0.2301105
64.72427	1347.432	5.827073	-8.660129	0.2422403
64.77821	1346.779	5.831872	-8.029077	0.2560476
64.83216	1346.137	5.85309	-7.376245	0.2715708
64.88611	1345.515	5.890892	-6.701207	0.2888606
64.94006	1344.92	5.941885	-6.003524	0.3079304
64.99401	1344.361	6.002301	-5.282774	0.3288215
65.04796	1343.842	6.069345	-4.538482	0.3515143
65.10191	1343.365	6.139876	-3.770172	0.3760099
65.15586	1342.927	6.210613	-2.977343	0.4022551
65.20981	1342.524	6.279985	-2.159497	0.4301697
65.26376	1342.148	6.347681	-1.316098	0.4596352
65.3177	1341.798	6.414307	-0.4465744	0.4905244
65.37165	1341.475	6.480512	0.4496606	0.5226698
65.42561	1341.183	6.545813	1.373199	0.5558711
65.47955	1340.928	6.608674	2.324709	0.589892
65.5335	1340.715	6.669387	3.304874	0.6244667
65.58745	1340.551	6.731135	4.314411	0.6593388
65.6414	1340.441	6.796134	5.354058	0.6942111
65.69535	1340.391	6.8645	6.424569	0.7287748
65.7493	1340.405	6.934518	7.526704	0.7627639
65.80325	1340.488	7.005182	8.661234	0.7959024
65.85719	1340.643	7.07474	9.828905	0.8279891
65.91115	1340.872	7.140587	11.03052	0.858767
65.9651	1341.177	7.199316	12.26683	0.8880296
66.01904	1341.556	7.249277	13.5386	0.9156151
66.07299	1342.007	7.291927	14.8466	0.9414337
66.12694	1342.53	7.330004	16.1916	0.9654251
66.18089	1343.126	7.365845	17.57434	0.9875204
66.23484	1343.797	7.398938	18.9956	1.00775
66.28879	1344.545	7.429775	20.4561	1.026173
66.34274	1345.373	7.4606	21.9566	1.042907
66.39668	1346.282	7.492447	23.49782	1.058096
66.45064	1347.276	7.526677	25.08043	1.071925
66.50459	1348.357	7.567266	26.70512	1.084606
66.55853	1349.522	7.616489	28.37255	1.096421
66.61248	1350.769	7.67512	30.08334	1.107623
66.66644	1352.095	7.740168	31.83809	1.118555
66.72038	1353.498	7.806458	33.63734	1.129466
66.77433	1354.976	7.868237	35.48165	1.140706
66.82828	1356.532	7.921392	37.37153	1.152575
66.88223	1358.169	7.963718	39.30753	1.165473
66.93618	1359.893	7.995009	41.29013	1.179642
66.99013	1361.711	8.016276	43.31981	1.195423
67.04408	1363.628	8.02968	45.39709	1.213115
67.09802	1365.65	8.037424	47.52241	1.232963
67.15198	1367.78	8.043616	49.69629	1.255305
67.20592	1370.02	8.053423	51.91914	1.280272
67.25987	1372.371	8.071879	54.1914	1.308065
67.31382	1374.833	8.101996	56.51346	1.338787
67.36777	1377.408	8.145615	58.88575	1.372627
67.42172	1380.097	8.201531	61.3086	1.409533
67.47567	1382.905	8.266112	63.78239	1.449504
67.52962	1385.838	8.336522	66.30746	1.49248
67.58356	1388.902	8.409498	68.88413	1.538278
67.63751	1392.107	8.480819	71.51276	1.586823
67.69147	1395.459	8.543858	74.19354	1.637805
67.74541	1398.969	8.594094	76.9267	1.691011
67.79936	1402.639	8.629501	79.71235	1.746202
67.85331	1406.47	8.648771	82.55054	1.803071
67.90726	1410.465	8.653672	85.44131	1.861428
67.96121	1414.624	8.647077	88.38447	1.920868
68.01516	1418.948	8.633702	91.37985	1.981107
68.06911	1423.436	8.620289	94.42715	2.041769
68.12305	1428.085	8.613154	97.52608	2.102593
68.17701	1432.894	8.616837	100.6761	2.163133
68.23096	1437.86	8.634567	103.8769	2.223072
68.2849	1442.986	8.669051	107.1277	2.282109
68.33885	1448.275	8.722151	110.4279	2.339916
68.39281	1453.734	8.789913	113.7769	2.396329
68.44675	1459.373	8.862635	117.1738	2.451054
68.5007	1465.203	8.931686	120.6178	2.503942
68.55465	1471.229	8.993266	124.1081	2.554862
68.6086	1477.455	9.048833	127.6435	2.60371
68.66255	1483.882	9.102317	131.2231	2.650439
68.7165	1490.51	9.156862	134.8456	2.695038
68.77045	1497.339	9.213523	138.5099	2.737509
68.82439	1504.374	9.273879	142.2147	2.777894
68.87834	1511.622	9.342034	145.9586	2.816337
68.9323	1519.087	9.423168	149.7402	2.85284
68.98624	1526.772	9.52294	153.5578	2.887497
69.04019	1534.681	9.647155	157.4098	2.920371
69.09414	1542.817	9.798809	161.2944	2.951498
69.14809	1551.185	9.977275	165.2097	2.980988
69.20204	1559.79	10.18044	169.1535	3.008814
69.25599	1568.638	10.40408	173.1234	3.034991
69.30994	1577.735	10.64113	177.1169	3.059521
69.36388	1587.083	10.88408	181.1312	3.08241
69.41784	1596.686	11.12829	185.1633	3.103524
69.47179	1606.543	11.37253	189.2097	3.12279
69.52573	1616.655	11.61694	193.2671	3.140075
69.57968	1627.022	11.86317	197.3315	3.155217
69.63363	1637.643	12.11146	201.3987	3.168025
69.68758	1648.521	12.36138	205.4644	3.178298
69.74153	1659.653	12.61324	209.5235	3.185806
69.79548	1671.04	12.86613	213.5711	3.190292
69.84943	1682.68	13.12064	217.6015	3.19147
69.90338	1694.573	13.37908	221.6089	3.18898
69.95733	1706.719	13.6426	225.587	3.182503
70.01128	1719.12	13.90911	229.5293	3.171637
70.06522	1731.782	14.17401	233.4287	3.156018
70.11917	1744.706	14.43191	237.2779	3.135169
70.17313	1757.891	14.67693	241.0694	3.108741
70.22707	1771.33	14.90568	244.7954	3.076343
70.28102	1785.015	15.11982	248.4477	3.037678
70.33497	1798.94	15.32262	252.0181	2.992504
70.38892	1813.099	15.5151	255.4979	2.94048
70.44287	1827.484	15.69496	258.8788	2.88161
70.49682	1842.092	15.86018	262.1522	2.815775
70.55077	1856.92	16.00997	265.3093	2.74305
70.60471	1871.968	16.14384	268.3415	2.663338
70.65867	1887.236	16.26406	271.2406	2.577011
70.71262	1902.728	16.37588	273.9981	2.48428
70.76656	1918.444	16.48527	276.606	2.38545
70.82051	1934.387	16.59751	279.0567	2.281078
70.87446	1950.56	16.71691	281.3424	2.171355
70.92841	1966.965	16.8449	283.4563	2.057127
70.98236	1983.602	16.98171	285.3918	1.938864
71.03631	2000.475	17.12601	287.1427	1.817185
71.09026	2017.581	17.2735	288.7035	1.692895
71.14421	2034.918	17.42033	290.0689	1.566312
71.19816	2052.479	17.56451	291.2346	1.438487
71.25211	2070.258	17.70676	292.1966	1.309988
71.30605	2088.245	17.84716	292.9516	1.181636
71.36	2106.431	17.98471	293.4968	1.053711
71.41396	2124.808	18.11789	293.8301	0.9272354
71.4679	2143.367	18.24281	293.9501	0.8027326
71.52185	2162.094	18.35334	293.8559	0.6807853
71.5758	2180.974	18.44715	293.5473	0.562209
71.62975	2199.989	18.52721	293.0244	0.4473963
71.6837	2219.116	18.59794	292.2885	0.337979
71.73765	2238.328	18.66307	291.3409	0.2362816
71.7916	2257.598	18.72305	290.1837	0.1499989
71.84554	2276.892	18.77551	288.8194	0.107725
71.8995	2296.177	18.81789	287.251	0.143299
71.95345	2315.417	18.8476	285.4821	0.216061
72.00739	2334.577	18.86237	283.5166	0.2960124
72.06134	2353.619	18.85845	281.3589	0.3754973
72.11529	2372.504	18.83246	279.0134	0.4528658
72.16924	2391.195	18.78309	276.4852	0.5271457
72.22319	2409.649	18.70923	273.7796	0.5983545
72.27714	2427.834	18.60793	270.902	0.6665578
72.33109	2445.719	18.47413	267.8583	0.7318783
72.38504	2463.274	18.30315	264.6542	0.7948866
72.43899	2480.474	18.09557	261.296	0.8555252
72.49294	2497.293	17.85644	257.7901	0.9141904
72.54688	2513.704	17.5927	254.1431	0.9710074
72.60083	2529.684	17.31159	250.3615	1.026506
72.65479	2545.216	17.01848	246.4525	1.080618
72.70873	2560.286	16.71836	242.4232	1.133563
72.76268	2574.878	16.41558	238.2807	1.185489
72.81663	2588.979	16.11803	234.0328	1.236393
72.87058	2602.573	15.83461	229.6868	1.286463
72.92453	2615.652	15.57171	225.2509	1.335485
72.97848	2628.215	15.33284	220.7331	1.383368
73.03242	2640.268	15.1215	216.1414	1.429932
73.08637	2651.816	14.93772	211.4845	1.474872
73.14033	2662.866	14.77717	206.7707	1.517929
73.19427	2673.423	14.63198	202.0088	1.558681
73.24822	2683.493	14.49559	197.2076	1.596772
73.30217	2693.086	14.36904	192.376	1.631844
73.35612	2702.215	14.25848	187.5229	1.663545
73.41007	2710.901	14.16809	182.6574	1.691604
73.46402	2719.167	14.0988	177.7884	1.715774
73.51797	2727.031	14.05331	172.9251	1.735856
73.57191	2734.516	14.03458	168.0764	1.751784
73.62587	2741.637	14.04382	163.2513	1.763358
73.67982	2748.412	14.08305	158.4584	1.77072
73.73376	2754.86	14.15263	153.7063	1.773914
73.78771	2761	14.24631	149.0036	1.773103
73.84166	2766.85	14.35288	144.3583	1.768266
73.89561	2772.43	14.46107	139.7783	1.759743
73.94956	2777.759	14.56246	135.2711	1.747677
74.00351	2782.863	14.64712	130.8438	1.732249
74.05746	2787.764	14.70677	126.503	1.713814
74.1114	2792.485	14.73689	122.2551	1.69238
74.16536	2797.042	14.73658	118.1057	1.668478
74.21931	2801.452	14.70924	114.06	1.642367
74.27325	2805.727	14.66051	110.1225	1.614413
74.3272	2809.877	14.59646	106.2972	1.58508
74.38116	2813.911	14.52375	102.5875	1.554533
74.4351	2817.84	14.44674	98.99612	1.523445
74.48905	2821.667	14.36586	95.52503	1.492163
74.543	2825.392	14.28176	92.17562	1.461158
74.59695	2829.011	14.19517	88.9488	1.430623
74.6509	2832.529	14.1072	85.8446	1.401134
74.70485	2835.948	14.0167	82.86261	1.372934
74.7588	2839.271	13.92089	80.00182	1.346249
74.81274	2842.5	13.81919	77.26064	1.321313
74.8667	2845.633	13.71611	74.63715	1.298017
74.92065	2848.671	13.6149	72.12872	1.276514
74.97459	2851.619	13.51675	69.7325	1.256601
75.02854	2854.484	13.42457	67.44522	1.238032
75.08249	2857.277	13.34275	65.26331	1.220523
75.13644	2860.006	13.2749	63.18302	1.203529
75.19039	2862.681	13.22395	61.20024	1.186721
75.24434	2865.304	13.19218	59.31083	1.169539
75.29829	2867.871	13.1852	57.51049	1.151518
75.35223	2870.377	13.20311	55.79499	1.132049
75.40619	2872.817	13.2376	54.1599	1.110783
75.46014	2875.192	13.27998	52.60092	1.08727
75.51408	2877.506	13.32693	51.11377	1.06113
75.56803	2879.761	13.37678	49.69425	1.032091
75.62199	2881.96	13.42826	48.33834	0.9998186
75.67593	2884.106	13.48359	47.04209	0.9642283
75.72988	2886.209	13.54664	45.80179	0.9251915
75.78383	2888.278	13.61713	44.61391	0.8826886
75.83778	2890.318	13.69213	43.47515	0.8366812
75.89173	2892.332	13.76696	42.38238	0.7873254
75.94568	2894.325	13.83515	41.33273	0.734741
75.99963	2896.301	13.8887	40.32356	0.679122
76.05357	2898.263	13.921	39.35253	0.6207504
76.10753	2900.216	13.92781	38.41755	0.5599366
76.16148	2902.161	13.90545	37.51674	0.4971791
76.21542	2904.094	13.85294	36.64849	0.4330194
76.26937	2906.009	13.77167	35.81141	0.3681438
76.32332	2907.9	13.66572	35.00427	0.3034579
76.37727	2909.759	13.54117	34.22603	0.2402426
76.43122	2911.583	13.4069	33.47575	0.1808152
76.48517	2913.369	13.27216	32.75259	0.1301127
76.53912	2915.117	13.1419	32.05579	0.09993168
76.59306	2916.83	13.02151	31.38468	0.1052205
76.64702	2918.509	12.9147	30.73856	0.1381104
76.70097	2920.154	12.81975	30.11679	0.1805762
76.75491	2921.768	12.73251	29.51872	0.2237845
76.80886	2923.354	12.65166	28.94367	0.2641578
76.86282	2924.913	12.58125	28.39095	0.2999823
76.91676	2926.438	12.52476	27.85983	0.3302687
76.97071	2927.92	12.48119	27.34955	0.3544284
77.02466	2929.351	12.44711	26.85934	0.3721216
77.07861	2930.726	12.41934	26.38844	0.3831864
77.13256	2932.045	12.39701	25.93607	0.3876138
77.18651	2933.303	12.38193	25.50144	0.3855093
77.24046	2934.501	12.38109	25.08378	0.377078
77.2944	2935.635	12.40449	24.6823	0.3626057
77.34836	2936.707	12.45799	24.29627	0.3424663
77.40231	2937.72	12.53796	23.92495	0.3170409
77.45625	2938.682	12.64115	23.56763	0.2867532
77.5102	2939.603	12.76569	23.22361	0.2520342
77.56415	2940.491	12.90564	22.89224	0.2133323
77.6181	2941.352	13.05439	22.57293	0.1711245
77.67205	2942.19	13.208	22.26511	0.1259053
77.726	2943.012	13.36052	21.96831	0.07826661
77.77995	2943.823	13.50446	21.68211	0.02934038
77.83389	2944.628	13.63267	21.40619	0.02524176
77.88785	2945.434	13.73843	21.14027	0.07640445
77.9418	2946.24	13.81796	20.88414	0.129023
77.99574	2947.043	13.87052	20.63767	0.1818085
78.04969	2947.84	13.90007	20.40082	0.2342636
78.10365	2948.629	13.91367	20.17369	0.2859941
78.15759	2949.412	13.91746	19.9564	0.3367203
78.21154	2950.195	13.91464	19.74922	0.3862226
78.26549	2950.983	13.90678	19.55245	0.434354
78.31944	2951.785	13.89072	19.36645	0.481037
78.37339	2952.609	13.86273	19.1916	0.5262439
78.42734	2953.461	13.82523	19.02831	0.5700366
78.48129	2954.346	13.78301	18.87699	0.6125143
78.53523	2955.271	13.7381	18.73802	0.6538395
78.58918	2956.24	13.68971	18.61175	0.6942014
78.64314	2957.254	13.63536	18.49847	0.7338519
78.69708	2958.312	13.57304	18.39842	0.7730429
78.75103	2959.408	13.50415	18.31178	0.8120613
78.80498	2960.539	13.43303	18.23864	0.8512175
78.85893	2961.698	13.36882	18.17903	0.8908117
78.91288	2962.87	13.32103	18.1329	0.931134
78.96683	2964.042	13.29319	18.10008	0.9724126
79.02077	2965.205	13.28568	18.08037	1.014802
79.07472	2966.354	13.29362	18.07345	1.058358
79.12868	2967.486	13.30843	18.07891	1.103068
79.18262	2968.601	13.32166	18.09629	1.148815
79.23657	2969.698	13.32697	18.12505	1.19539
79.29052	2970.777	13.32464	18.16455	1.242497
79.34447	2971.838	13.3184	18.21416	1.289721
79.39842	2972.883	13.31179	18.27317	1.336613
79.45237	2973.914	13.30826	18.3409	1.382655
79.50632	2974.931	13.3097	18.41663	1.427293
79.56026	2975.932	13.31867	18.49968	1.469954
79.61422	2976.918	13.3385	18.58936	1.510013
79.66817	2977.887	13.3691	18.685	1.54686
79.72211	2978.834	13.4056	18.78597	1.579872
79.77606	2979.751	13.44308	18.89167	1.608454
79.83001	2980.635	13.47663	19.00153	1.632024
79.88396	2981.482	13.50061	19.115	1.650084
79.93791	2982.296	13.5088	19.23153	1.662191
79.99186	2983.08	13.49605	19.35063	1.66798
80.04581	2983.846	13.4582	19.47179	1.667175
80.09976	2984.608	13.39373	19.59458	1.659555
80.15371	2985.38	13.30515	19.71859	1.645011
80.20766	2986.175	13.20131	19.84349	1.6235
80.2616	2987.006	13.09248	19.96898	1.595072
80.31555	2987.882	12.98437	20.09477	1.55986
80.36951	2988.805	12.88005	20.22066	1.518049
80.42345	2989.772	12.7839	20.34643	1.469913
80.4774	2990.776	12.70072	20.47194	1.415781
80.53135	2991.808	12.63075	20.59708	1.356071
80.5853	2992.861	12.57108	20.72175	1.291289
80.63925	2993.932	12.51871	20.84586	1.222057
80.6932	2995.02	12.47049	20.96932	1.149066
80.74715	2996.124	12.42403	21.09204	1.073089
80.80109	2997.244	12.37448	21.21392	0.9949705
80.85505	2998.379	12.31818	21.33484	0.9156255
80.909	2999.528	12.25247	21.45467	0.8360526
80.96294	3000.688	12.17878	21.57324	0.7573168
81.01689	3001.861	12.10458	21.69032	0.6805714
81.07084	3003.048	12.03946	21.80562	0.60707
81.12479	3004.249	11.99129	21.91877	0.5382051
81.17874	3005.468	11.96149	22.02937	0.4755365
81.23269	3006.704	11.9477	22.13693	0.4208285
81.28664	3007.957	11.95087	22.24095	0.3760315
81.34059	3009.228	11.96999	22.34088	0.3430798
81.39454	3010.519	12.00203	22.43617	0.3233759
81.44849	3011.83	12.04249	22.52622	0.3171529
81.50243	3013.156	12.08809	22.61045	0.3231666
81.55638	3014.497	12.13996	22.68828	0.3391197
81.61034	3015.848	12.20106	22.75909	0.3625
81.66428	3017.206	12.27082	22.82231	0.3912317
81.71823	3018.57	12.34765	22.87733	0.4238806
81.77218	3019.943	12.43173	22.92355	0.4595924
81.82613	3021.327	12.52467	22.9603	0.4978973
81.88008	3022.725	12.62863	22.98695	0.5385884
81.93403	3024.14	12.74366	23.00282	0.581562
81.98798	3025.577	12.86641	23.00718	0.6267426
82.04192	3027.033	12.98989	22.99931	0.6740222
82.09588	3028.51	13.10568	22.97844	0.7232179
82.14983	3030.001	13.20484	22.94382	0.7741012
82.20377	3031.506	13.28108	22.89471	0.8263659
82.25772	3033.019	13.33401	22.83038	0.8796632
82.31167	3034.535	13.36678	22.75008	0.9336047
82.36562	3036.05	13.38473	22.65314	0.9877903
82.41957	3037.552	13.39168	22.53883	1.041795
82.47352	3039.035	13.39181	22.40649	1.095195
82.52747	3040.486	13.39083	22.25545	1.147567
82.58142	3041.898	13.39272	22.08507	1.198502
82.63537	3043.271	13.40244	21.89477	1.247618
82.68932	3044.606	13.42539	21.68399	1.294575
82.74326	3045.914	13.46482	21.45225	1.339086
82.79721	3047.204	13.52207	21.1991	1.380927
82.85117	3048.484	13.59612	20.92415	1.419945
82.90511	3049.755	13.68526	20.62712	1.456072
82.95906	3051.016	13.78444	20.30777	1.4893
83.01301	3052.265	13.88866	19.96591	1.519678
83.06696	3053.502	13.99353	19.60136	1.547279
83.12091	3054.723	14.09137	19.21405	1.572203
83.17486	3055.922	14.17372	18.80387	1.594551
83.22881	3057.088	14.2361	18.37083	1.614431
83.28275	3058.212	14.27757	17.91497	1.631956
83.33671	3059.289	14.30212	17.43641	1.647238
83.39066	3060.321	14.32069	16.93537	1.660383
83.4446	3061.312	14.34674	16.41209	1.671492
83.49855	3062.275	14.39362	15.86691	1.680646
83.5525	3063.221	14.47255	15.3002	1.687907
83.60645	3064.158	14.58641	14.71239	1.69332
83.6604	3065.089	14.72999	14.10398	1.696917
83.71435	3066.022	14.89501	13.47549	1.698716
83.7683	3066.959	15.06923	12.82749	1.698721
83.82225	3067.897	15.24283	12.16056	1.696921
83.8762	3068.833	15.40755	11.47536	1.693275
83.93015	3069.759	15.55806	10.77255	1.687717
83.98409	3070.661	15.68847	10.05284	1.680153
84.03804	3071.528	15.79508	9.316997	1.670456
84.092	3072.35	15.87972	8.565764	1.65846
84.14594	3073.125	15.94598	7.79995	1.64397
84.19989	3073.852	16.00007	7.020361	1.626777
84.25384	3074.529	16.05252	6.227831	1.60666
84.30779	3075.15	16.11534	5.423178	1.583374
84.36174	3075.712	16.19691	4.607239	1.556648
84.41569	3076.214	16.29879	3.780806	1.526212
84.46964	3076.656	16.42027	2.944641	1.491799
84.52358	3077.035	16.55799	2.099461	1.453156
84.57754	3077.35	16.70637	1.245933	1.410061
84.63148	3077.594	16.85933	0.3847051	1.362331
84.68543	3077.765	17.01057	-0.4835961	1.309852
84.73938	3077.863	17.15414	-1.358348	1.252566
84.79333	3077.893	17.28486	-2.23891	1.190459
84.84728	3077.853	17.40096	-3.124632	1.123556
84.90123	3077.737	17.50079	-4.01481	1.051929
84.95518	3077.536	17.58645	-4.90871	0.9757044
85.00912	3077.242	17.66418	-5.805552	0.8950588
85.06308	3076.857	17.73854	-6.704527	0.8102273
85.11703	3076.381	17.81339	-7.604801	0.7215101
85.17097	3075.82	17.8886	-8.505527	0.6292856
85.22492	3075.18	17.96093	-9.405833	0.5340306
85.27887	3074.473	18.02821	-10.30484	0.4363866
85.33282	3073.709	18.08752	-11.20161	0.3373241
85.38677	3072.898	18.13584	-12.09523	0.2387609
85.44072	3072.052	18.17378	-12.9847	0.1465211
85.49467	3071.178	18.2031	-13.86905	0.09002057
85.54861	3070.275	18.22171	-14.74727	0.1317054
85.60257	3069.338	18.22446	-15.61834	0.2216089
85.65652	3068.355	18.20549	-16.48129	0.3206298
85.71046	3067.32	18.16142	-17.33514	0.4211314
85.76441	3066.224	18.09199	-18.17895	0.5208042
85.81837	3065.068	18.00286	-19.01178	0.6185223
85.87231	3063.854	17.90066	-19.83278	0.7135421
85.92626	3062.585	17.78584	-20.64113	0.805315
85.98021	3061.256	17.66	-21.43604	0.8934088
86.03416	3059.869	17.52638	-22.21681	0.9774806
86.08811	3058.423	17.38644	-22.98273	1.057274
86.14206	3056.926	17.2407	-23.73321	1.132565
86.19601	3055.379	17.08968	-24.46767	1.203197
86.24995	3053.789	16.93327	-25.18565	1.269058
86.30391	3052.156	16.77364	-25.88669	1.330102
86.35786	3050.487	16.61374	-26.5705	1.386323
86.4118	3048.783	16.45629	-27.23681	1.437782
86.46575	3047.051	16.30277	-27.88546	1.484576
86.5197	3045.293	16.15375	-28.51639	1.526814
86.57365	3043.509	16.01024	-29.12961	1.564631
86.6276	3041.692	15.87158	-29.72525	1.598121
86.68155	3039.831	15.73723	-30.30354	1.627372
86.7355	3037.926	15.60619	-30.86478	1.652446
86.78944	3035.985	15.47723	-31.40933	1.673405
86.8434	3034.014	15.34812	-31.93761	1.69035
86.89735	3032.022	15.22104	-32.45009	1.703364
86.95129	3030.02	15.09989	-32.94727	1.712565
87.00524	3028.014	14.98835	-33.42968	1.718084
87.0592	3026.005	14.88784	-33.89785	1.72009
87.11314	3023.99	14.79727	-34.35236	1.718748
87.16709	3021.963	14.71189	-34.79379	1.714266
87.22104	3019.92	14.63215	-35.22271	1.706882
87.27499	3017.857	14.56009	-35.63977	1.696858
87.32894	3015.775	14.49579	-36.04554	1.684482
87.38289	3013.672	14.43911	-36.44065	1.67005
87.43684	3011.554	14.39227	-36.82563	1.653834
87.49078	3009.424	14.3569	-37.20101	1.636104
87.54473	3007.289	14.33138	-37.56726	1.617098
87.59869	3005.156	14.31054	-37.92484	1.59702
87.65263	3003.026	14.29103	-38.2742	1.576037
87.70658	3000.899	14.27096	-38.61576	1.5543
87.76053	2998.771	14.2527	-38.94993	1.531935
87.81448	2996.636	14.23934	-39.2771	1.509077
87.86843	2994.494	14.22736	-39.59768	1.485878
87.92238	2992.337	14.21453	-39.91206	1.462499
87.97633	2990.167	14.20376	-40.22063	1.439132
88.03027	2987.99	14.19723	-40.52381	1.415983
88.08423	2985.815	14.1977	-40.82194	1.393248
88.13818	2983.648	14.2079	-41.11538	1.37111
88.19212	2981.491	14.23115	-41.40445	1.349749
88.24607	2979.338	14.26807	-41.68946	1.329335
88.30003	2977.186	14.31775	-41.97068	1.310036
88.35397	2975.027	14.37573	-42.24834	1.292024
88.40792	2972.855	14.43174	-42.52268	1.275461
88.46187	2970.666	14.47795	-42.79391	1.260499
88.51582	2968.458	14.51199	-43.06219	1.24728
88.56977	2966.234	14.5337	-43.32769	1.23593
88.62372	2963.99	14.54338	-43.59053	1.226554
88.67767	2961.724	14.54328	-43.85084	1.219237
88.73161	2959.433	14.53671	-44.10872	1.214021
88.78556	2957.119	14.52513	-44.36428	1.210931
88.83952	2954.781	14.50858	-44.61759	1.209969
88.89346	2952.417	14.4876	-44.86876	1.211106
88.94741	2950.03	14.46072	-45.11789	1.214289
89.00136	2947.618	14.42606	-45.36507	1.219424
89.05531	2945.183	14.38188	-45.61037	1.226414
89.10926	2942.726	14.32749	-45.85388	1.235135
89.16321	2940.247	14.25957	-46.09563	1.245463
89.21716	2937.744	14.17611	-46.33564	1.257286
89.2711	2935.213	14.07557	-46.57392	1.270528
89.32506	2932.654	13.95755	-46.81044	1.285138
89.37901	2930.065	13.82501	-47.04514	1.301085
89.43295	2927.451	13.68333	-47.27789	1.318339
89.4869	2924.813	13.53893	-47.5085	1.336901
89.54086	2922.156	13.39537	-47.73676	1.356757
89.5948	2919.486	13.25491	-47.96242	1.377884
89.64875	2916.809	13.1208	-48.18521	1.400243
89.7027	2914.125	12.99641	-48.40487	1.423782
89.75665	2911.439	12.88394	-48.62112	1.448439
89.8106	2908.746	12.77966	-48.83372	1.474141
89.86455	2906.041	12.67851	-49.04242	1.500788
89.9185	2903.318	12.58123	-49.24701	1.528257
89.97244	2900.574	12.49146	-49.4473	1.556407
90.02639	2897.807	12.40995	-49.64311	1.585081
90.08035	2895.021	12.33423	-49.8343	1.614104
90.13429	2892.211	12.26298	-50.02076	1.643314
90.18824	2889.377	12.1994	-50.20242	1.67255
90.24219	2886.522	12.14891	-50.37919	1.70167
90.29614	2883.654	12.11612	-50.55103	1.730534
90.35009	2880.782	12.09984	-50.71791	1.759005
90.40404	2877.912	12.0955	-50.87982	1.786944
90.45798	2875.043	12.09775	-51.03677	1.814204
90.51193	2872.177	12.1024	-51.18876	1.840644
90.56589	2869.311	12.10303	-51.33583	1.866139
90.61983	2866.446	12.09536	-51.47806	1.890583
90.67378	2863.575	12.07723	-51.61549	1.913892
90.72773	2860.696	12.0486	-51.74819	1.936005
90.78168	2857.815	12.01147	-51.87625	1.956883
90.83563	2854.939	11.97145	-51.99978	1.976496
90.88958	2852.071	11.93358	-52.11897	1.994835
90.94353	2849.21	11.89841	-52.23399	2.011898
90.99747	2846.35	11.86726	-52.34508	2.027677
91.05143	2843.491	11.84293	-52.45251	2.042175
91.10538	2840.632	11.82609	-52.55657	2.055377
91.15932	2837.779	11.81541	-52.65755	2.067249
91.21327	2834.934	11.80855	-52.75578	2.077769
91.26722	2832.096	11.79907	-52.85155	2.086915
91.32117	2829.26	11.77786	-52.94522	2.094683
91.37512	2826.421	11.73665	-53.03712	2.101058
91.42907	2823.572	11.67105	-53.12758	2.106045
91.48302	2820.707	11.58259	-53.21688	2.109651
91.53697	2817.829	11.47449	-53.30526	2.111891
91.59092	2814.94	11.3527	-53.39289	2.112803
91.64487	2812.046	11.22651	-53.47994	2.112439
91.69881	2809.154	11.10583	-53.56647	2.110867
91.75276	2806.268	10.99562	-53.65257	2.108174
91.80672	2803.387	10.89567	-53.73822	2.104463
91.86066	2800.512	10.80281	-53.82344	2.099838
91.91461	2797.643	10.71345	-53.90825	2.09439
91.96856	2794.779	10.62578	-53.9926	2.08821
92.02251	2791.925	10.53795	-54.07652	2.08139
92.07646	2789.082	10.44818	-54.16	2.074017
92.13041	2786.245	10.35304	-54.24305	2.066166
92.18436	2783.404	10.24946	-54.32566	2.057928
92.2383	2780.552	10.13472	-54.40784	2.049376
92.29226	2777.688	10.00688	-54.48957	2.04059
92.34621	2774.812	9.867248	-54.57084	2.031633
92.40015	2771.928	9.72139	-54.65169	2.022517
92.4541	2769.037	9.57469	-54.7411	2.016912
92.50805	2766.145	9.432745	-54.82687	2.012624
92.562	2763.254	9.302943	-54.90957	2.0095
92.61595	2760.363	9.190799	-54.98996	2.007468
92.6699	2757.467	9.096818	-55.0687	2.006493
92.72385	2754.559	9.020161	-55.14632	2.006569
92.7778	2751.634	8.963015	-55.22322	2.007707
92.83175	2748.69	8.926545	-55.29971	2.00994
92.8857	2745.729	8.908363	-55.37599	2.013305
92.93964	2742.755	8.905902	-55.45222	2.017853
92.99359	2739.768	8.919356	-55.52852	2.023626
93.04755	2736.766	8.9488	-55.60499	2.030677
93.10149	2733.746	8.992668	-55.68167	2.039044
93.15544	2730.706	9.050813	-55.75863	2.048768
93.20939	2727.644	9.122432	-55.83588	2.059883
93.26334	2724.562	9.204908	-55.91347	2.072409
93.31729	2721.46	9.294796	-55.9914	2.086367
93.37124	2718.343	9.387639	-56.06968	2.101775
93.42519	2715.212	9.479103	-56.14831	2.118632
93.47913	2712.071	9.567502	-56.22729	2.136945
93.53309	2708.921	9.654393	-56.3066	2.156707
93.58704	2705.766	9.744699	-56.38623	2.177913
93.64098	2702.61	9.842525	-56.46616	2.200546
93.69493	2699.455	9.951745	-56.54637	2.224593
93.74888	2696.302	10.07477	-56.62682	2.250035
93.80283	2693.158	10.21011	-56.70749	2.276848
93.85678	2690.021	10.35525	-56.78835	2.305009
93.91073	2686.887	10.50614	-56.86935	2.334486
93.96468	2683.746	10.65704	-56.95048	2.365244
94.01863	2680.602	10.80122	-57.03168	2.397249
94.07258	2677.469	10.89328	-57.11292	2.430465
94.12653	2674.381	10.96228	-57.19417	2.464845
94.18047	2671.326	11.01756	-57.27538	2.500352
94.23442	2668.288	11.06455	-57.35653	2.536941
94.28838	2665.262	11.10606	-57.43758	2.574571
94.34232	2662.241	11.14346	-57.51851	2.613195
94.39627	2659.224	11.17773	-57.59928	2.652771
94.45022	2656.21	11.21002	-57.67986	2.693252
94.50417	2653.197	11.2409	-57.76024	2.734598
94.55812	2650.185	11.27097	-57.84039	2.776763
94.61207	2647.174	11.30027	-57.92029	2.819705
94.66602	2644.165	11.32911	-57.99992	2.863386
94.71996	2641.156	11.35712	-58.07926	2.907763
94.77392	2638.148	11.38433	-58.15831	2.952796
94.82787	2635.143	11.41087	-58.23705	2.998454
94.88181	2632.14	11.4359	-58.31547	3.044694
94.93576	2629.141	11.45924	-58.39357	3.09149
94.98971	2626.147	11.48051	-58.47136	3.138805
