T[Â°C]	330nm [counts / mm]	S.D.	First derivative	S.D. of first derivative
20.00046	3197.675	16.14756	-44.52407	2.885051
20.05441	3195.194	15.8672	-44.49624	2.823869
20.10836	3192.713	15.59026	-44.46857	2.762888
20.16231	3190.233	15.31672	-44.44109	2.70212
20.21625	3187.753	15.04676	-44.41379	2.641582
20.2702	3185.273	14.78019	-44.38668	2.581287
20.32415	3182.793	14.51703	-44.35977	2.521246
20.3781	3180.314	14.25657	-44.33305	2.461477
20.43205	3177.836	13.99916	-44.30654	2.402001
20.486	3175.359	13.74487	-44.28024	2.342829
20.53995	3172.885	13.49408	-44.25414	2.283986
20.5939	3170.414	13.24809	-44.22825	2.225484
20.64785	3167.947	13.00745	-44.20257	2.167345
20.7018	3165.484	12.773	-44.17711	2.109587
20.75574	3163.028	12.54583	-44.15185	2.052232
20.80969	3160.579	12.32561	-44.1268	1.995297
20.86364	3158.139	12.11364	-44.10196	1.938798
20.91759	3155.708	11.91404	-44.07731	1.882759
20.97154	3153.285	11.74023	-44.05285	1.827196
21.02549	3150.913	11.66252	-44.02858	1.772124
21.07944	3148.539	11.58849	-44.00448	1.717561
21.13339	3146.159	11.51423	-43.98055	1.66352
21.18734	3143.771	11.43873	-43.95676	1.610016
21.24129	3141.381	11.36397	-43.9331	1.557062
21.29524	3138.996	11.29403	-43.90955	1.504674
21.34919	3136.625	11.23271	-43.88611	1.45286
21.40314	3134.272	11.18344	-43.86275	1.40163
21.45708	3131.938	11.15139	-43.83945	1.35099
21.51103	3129.625	11.13831	-43.8162	1.300935
21.56498	3127.332	11.14351	-43.79295	1.251468
21.61893	3125.059	11.17083	-43.7697	1.20257
21.67288	3122.802	11.22098	-43.74641	1.154231
21.72683	3120.553	11.29009	-43.72306	1.106427
21.78078	3118.299	11.37145	-43.69962	1.059128
21.83473	3116.029	11.45519	-43.67605	1.012304
21.88868	3113.736	11.53168	-43.65233	0.9659166
21.94263	3111.418	11.59456	-43.62843	0.9199242
21.99657	3109.08	11.64092	-43.60431	0.8742704
22.05052	3106.727	11.66873	-43.57994	0.8288994
22.10447	3104.367	11.67828	-43.55531	0.7837403
22.15842	3102.008	11.67506	-43.53039	0.7387157
22.21237	3099.653	11.6644	-43.50515	0.6937388
22.26632	3097.306	11.65153	-43.47961	0.6487135
22.32027	3094.965	11.64123	-43.45378	0.6035538
22.37422	3092.63	11.63817	-43.42772	0.5581844
22.42817	3090.301	11.6428	-43.40154	0.5125793
22.48212	3087.978	11.6533	-43.37543	0.4668062
22.53607	3085.662	11.6675	-43.34972	0.4210713
22.59002	3083.355	11.682	-43.32479	0.3757634
22.64396	3081.054	11.69595	-43.30096	0.3583068
22.69791	3078.753	11.71101	-43.2774	0.3419795
22.75186	3076.441	11.72939	-43.25419	0.3267443
22.80581	3074.111	11.75256	-43.23141	0.3125811
22.85976	3071.759	11.77993	-43.20912	0.2994826
22.91371	3069.388	11.80851	-43.18736	0.287461
22.96766	3067.008	11.83549	-43.16616	0.2765502
23.02161	3064.623	11.85283	-43.14553	0.2668018
23.07556	3062.236	11.85319	-43.1255	0.2582724
23.12951	3059.849	11.83505	-43.10608	0.2510132
23.18345	3057.465	11.80391	-43.0873	0.2450883
23.2374	3055.09	11.76976	-43.06919	0.2405481
23.29135	3052.727	11.73963	-43.05179	0.237431
23.3453	3050.377	11.71575	-43.0351	0.235754
23.39925	3048.04	11.70238	-43.01912	0.2354969
23.4532	3045.709	11.70018	-43.0038	0.2365926
23.50715	3043.382	11.70464	-42.98911	0.2389374
23.5611	3041.051	11.71445	-42.97494	0.2423818
23.61505	3038.714	11.7297	-42.9612	0.246746
23.669	3036.365	11.74765	-42.94776	0.2518286
23.72295	3034.004	11.76147	-42.93445	0.2574226
23.7769	3031.633	11.75962	-42.92109	0.2633113
23.83084	3029.257	11.73349	-42.90749	0.2692934
23.88479	3026.882	11.67749	-42.89344	0.2751925
23.93874	3024.514	11.59111	-42.87872	0.2808503
23.99269	3022.162	11.47504	-42.86312	0.2861468
24.04664	3019.83	11.33304	-42.84647	0.2910061
24.10059	3017.521	11.16798	-42.82864	0.2953899
24.15454	3015.236	10.98584	-42.80952	0.2993021
24.20849	3012.977	10.79811	-42.78904	0.302785
24.26244	3010.745	10.6205	-42.76719	0.3058969
24.31639	3008.535	10.46814	-42.74395	0.3087094
24.37033	3006.332	10.35201	-42.71935	0.3113026
24.42428	3004.123	10.27736	-42.6934	0.3137857
24.47823	3001.899	10.24424	-42.66617	0.3162893
24.53218	2999.659	10.24599	-42.63772	0.3189748
24.58613	2997.403	10.27058	-42.60812	0.3220083
24.64008	2995.131	10.30901	-42.57743	0.3255625
24.69403	2992.845	10.35863	-42.54577	0.3298311
24.74798	2990.549	10.41717	-42.51324	0.3350112
24.80193	2988.245	10.47746	-42.47995	0.341299
24.85588	2985.941	10.53697	-42.44602	0.3488804
24.90983	2983.641	10.59716	-42.41158	0.3579229
24.96378	2981.351	10.65927	-42.37677	0.3685451
25.01772	2979.074	10.72113	-42.34173	0.3807995
25.07167	2976.811	10.78075	-42.30661	0.3946738
25.12562	2974.554	10.83758	-42.2716	0.4100848
25.17957	2972.297	10.89537	-42.23687	0.4268555
25.23352	2970.036	10.95912	-42.20258	0.4447357
25.28747	2967.764	11.02771	-42.1689	0.463404
25.34142	2965.477	11.09574	-42.136	0.4824944
25.39537	2963.173	11.15469	-42.10402	0.5016149
25.44932	2960.855	11.19312	-42.07312	0.5203689
25.50327	2958.53	11.20155	-42.04344	0.5383638
25.55721	2956.203	11.17718	-42.01511	0.5552203
25.61116	2953.877	11.12529	-41.98824	0.5705813
25.66511	2951.555	11.05547	-41.96291	0.5841103
25.71906	2949.234	10.97472	-41.93917	0.5954946
25.77301	2946.913	10.89089	-41.91705	0.6044415
25.82696	2944.593	10.81096	-41.89652	0.6107039
25.88091	2942.276	10.7417	-41.87753	0.6140748
25.93486	2939.969	10.68676	-41.85999	0.6143764
25.98881	2937.675	10.65119	-41.84381	0.6114672
26.04276	2935.396	10.63625	-41.82891	0.6052635
26.09671	2933.131	10.63795	-41.81516	0.5957313
26.15066	2930.878	10.64984	-41.80248	0.5828974
26.20461	2928.636	10.66843	-41.79076	0.5668597
26.25855	2926.407	10.69286	-41.77986	0.5477792
26.3125	2924.192	10.72613	-41.76966	0.525883
26.36645	2921.988	10.7727	-41.76001	0.5014694
26.4204	2919.792	10.83705	-41.75074	0.4749157
26.47435	2917.601	10.92551	-41.74168	0.4466371
26.5283	2915.411	11.03944	-41.73264	0.4170868
26.58225	2913.22	11.17111	-41.72348	0.3866975
26.6362	2911.022	11.31297	-41.71403	0.3558817
26.69015	2908.817	11.45792	-41.70417	0.3249886
26.74409	2906.601	11.59735	-41.6938	0.2942851
26.79804	2904.378	11.72311	-41.68283	0.2639558
26.85199	2902.152	11.83043	-41.67118	0.234119
26.90594	2899.927	11.9192	-41.65878	0.2048517
26.95989	2897.712	11.98921	-41.64557	0.1762306
27.01384	2895.51	12.03959	-41.63156	0.1483767
27.06779	2893.324	12.06859	-41.61675	0.1216003
27.12174	2891.153	12.07587	-41.60119	0.0966627
27.17569	2888.992	12.06414	-41.58492	0.07543689
27.22964	2886.832	12.03919	-41.56799	0.06208627
27.28359	2884.663	12.00674	-41.55044	0.06229709
27.33754	2882.472	11.97112	-41.53237	0.0762972
27.39149	2880.252	11.93782	-41.51384	0.09860927
27.44543	2878.005	11.90974	-41.49498	0.1249678
27.49938	2875.735	11.88784	-41.47591	0.1532657
27.55333	2873.447	11.86768	-41.45679	0.1824302
27.60728	2871.148	11.84212	-41.43777	0.2117946
27.66123	2868.843	11.80586	-41.41904	0.2408656
27.71518	2866.538	11.75564	-41.40077	0.2692425
27.76913	2864.239	11.6925	-41.38311	0.2965884
27.82308	2861.95	11.62024	-41.3662	0.3226303
27.87703	2859.674	11.53846	-41.35013	0.3471591
27.93098	2857.41	11.44984	-41.33497	0.3700193
27.98492	2855.159	11.35976	-41.32074	0.3911041
28.03887	2852.919	11.27297	-41.30744	0.4103183
28.09282	2850.681	11.18981	-41.29502	0.4275771
28.14677	2848.44	11.10883	-41.28339	0.442795
28.20072	2846.191	11.0294	-41.27243	0.4558875
28.25467	2843.932	10.95386	-41.26197	0.4667698
28.30862	2841.665	10.88314	-41.25187	0.4753514
28.36257	2839.396	10.81248	-41.24194	0.481524
28.41652	2837.13	10.73722	-41.23198	0.4851549
28.47047	2834.869	10.65513	-41.22178	0.4860883
28.52442	2832.613	10.5694	-41.21114	0.4841778
28.57837	2830.358	10.48601	-41.19986	0.4792929
28.63231	2828.104	10.40842	-41.18773	0.471354
28.68626	2825.85	10.34205	-41.17456	0.4603505
28.74021	2823.593	10.2928	-41.16018	0.4463831
28.79416	2821.329	10.26441	-41.14441	0.4296862
28.84811	2819.062	10.26206	-41.12707	0.4106342
28.90206	2816.799	10.28614	-41.10799	0.3897541
28.95601	2814.545	10.33252	-41.08698	0.3677502
29.00996	2812.307	10.39065	-41.06391	0.3455118
29.06391	2810.091	10.44991	-41.03862	0.3241351
29.11786	2807.899	10.50265	-41.01099	0.3048899
29.1718	2805.731	10.54589	-40.98092	0.2891775
29.22575	2803.582	10.57964	-40.94834	0.2783922
29.2797	2801.446	10.60461	-40.91322	0.2737074
29.33365	2799.316	10.6239	-40.8756	0.2757782
29.3876	2797.188	10.64273	-40.83554	0.2846096
29.44155	2795.06	10.67061	-40.79319	0.2995765
29.4955	2792.928	10.71293	-40.74871	0.3196698
29.54945	2790.792	10.77028	-40.70234	0.343738
29.6034	2788.65	10.83712	-40.6543	0.3706881
29.65735	2786.497	10.9048	-40.60491	0.3995866
29.7113	2784.333	10.96423	-40.55448	0.4296523
29.76525	2782.162	11.01191	-40.50333	0.4602286
29.81919	2779.986	11.04566	-40.45182	0.4907432
29.87314	2777.805	11.06719	-40.40028	0.5206758
29.92709	2775.625	11.07906	-40.34906	0.5495717
29.98104	2773.446	11.0851	-40.29848	0.5770045
30.03499	2771.266	11.08546	-40.24881	0.6025824
30.08894	2769.08	11.077	-40.20028	0.6259435
30.14289	2766.881	11.05783	-40.15311	0.6467741
30.19684	2764.661	11.03067	-40.10743	0.664797
30.25079	2762.413	11.0015	-40.06337	0.6797997
30.30474	2760.135	10.97901	-40.021	0.6916106
30.35869	2757.834	10.96765	-39.98038	0.7001281
30.41263	2755.522	10.96621	-39.94153	0.7053087
30.46658	2753.214	10.96891	-39.90443	0.7071772
30.52053	2750.925	10.97072	-39.86904	0.7058293
30.57448	2748.667	10.96601	-39.83532	0.7014225
30.62843	2746.448	10.9528	-39.80317	0.6941687
30.68238	2744.267	10.93286	-39.77252	0.6843314
30.73633	2742.12	10.90562	-39.74324	0.6721876
30.79028	2739.997	10.87091	-39.71524	0.6580214
30.84423	2737.89	10.82842	-39.68835	0.6421036
30.89818	2735.794	10.78064	-39.6624	0.6246792
30.95213	2733.707	10.72818	-39.6372	0.6059726
31.00607	2731.631	10.67155	-39.61252	0.5861875
31.06002	2729.571	10.60821	-39.5881	0.5655218
31.11397	2727.525	10.53473	-39.56369	0.5441589
31.16792	2725.49	10.4488	-39.539	0.522278
31.22187	2723.458	10.34643	-39.5138	0.5000496
31.27582	2721.428	10.22444	-39.48788	0.4776314
31.32977	2719.397	10.08559	-39.46109	0.4551804
31.38372	2717.368	9.93677	-39.43332	0.4328274
31.43767	2715.34	9.786806	-39.4045	0.4106915
31.49162	2713.315	9.643741	-39.37463	0.3888404
31.54557	2711.288	9.514274	-39.34373	0.3673089
31.59951	2709.255	9.400168	-39.31186	0.3460876
31.65346	2707.212	9.297656	-39.27911	0.3251457
31.70741	2705.157	9.204003	-39.24559	0.3044178
31.76136	2703.086	9.122066	-39.21147	0.2838218
31.81531	2700.996	9.056425	-39.17693	0.2632362
31.86926	2698.886	9.012963	-39.14219	0.2425546
31.92321	2696.76	8.9908	-39.10747	0.2217072
31.97716	2694.62	8.987709	-39.07306	0.200706
32.03111	2692.471	9.002135	-39.0392	0.1796966
32.08506	2690.322	9.030946	-39.00617	0.159041
32.13901	2688.178	9.069715	-38.97421	0.1394354
32.19296	2686.042	9.112598	-38.94357	0.1220817
32.2469	2683.911	9.155366	-38.91447	0.1088355
32.30085	2681.781	9.199134	-38.88712	0.1020398
32.3548	2679.648	9.253409	-38.86166	0.1034985
32.40875	2677.51	9.326467	-38.83825	0.1131107
32.4627	2675.363	9.418039	-38.81697	0.1289936
32.51665	2673.21	9.518335	-38.7979	0.1488579
32.5706	2671.054	9.618422	-38.78105	0.170865
32.62455	2668.902	9.714217	-38.7664	0.1937385
32.6785	2666.755	9.799487	-38.75388	0.2165968
32.73244	2664.615	9.868075	-38.74339	0.2388262
32.7864	2662.479	9.914804	-38.7348	0.2599849
32.84034	2660.348	9.938998	-38.72797	0.2797603
32.89429	2658.221	9.944983	-38.72271	0.2979115
32.94824	2656.097	9.938645	-38.71886	0.3142805
33.00219	2653.976	9.927767	-38.7162	0.3287638
33.05614	2651.86	9.920805	-38.71452	0.3412758
33.11009	2649.753	9.925017	-38.71358	0.3517705
33.16404	2647.656	9.941531	-38.71312	0.3602019
33.21799	2645.568	9.966457	-38.71288	0.3665347
33.27194	2643.49	9.998087	-38.7126	0.3707466
33.32589	2641.424	10.03544	-38.71204	0.3728192
33.37984	2639.37	10.0762	-38.71097	0.3727456
33.43378	2637.329	10.11948	-38.70922	0.3705381
33.48773	2635.302	10.17006	-38.70662	0.3662283
33.54168	2633.283	10.23156	-38.70303	0.3598843
33.59563	2631.269	10.3011	-38.69834	0.351616
33.64958	2629.26	10.37322	-38.69244	0.341585
33.70353	2627.254	10.44293	-38.68526	0.329994
33.75748	2625.248	10.50745	-38.67675	0.3170795
33.81143	2623.235	10.56793	-38.66689	0.3031005
33.86538	2621.21	10.6228	-38.65572	0.2883399
33.91933	2619.172	10.66888	-38.64331	0.2730775
33.97327	2617.121	10.70728	-38.6298	0.257605
34.02723	2615.061	10.74044	-38.61531	0.2422085
34.08117	2612.997	10.77284	-38.60001	0.2271857
34.13512	2610.934	10.80993	-38.5841	0.2128301
34.18907	2608.874	10.85543	-38.56776	0.1994389
34.24302	2606.816	10.90541	-38.55121	0.1872938
34.29697	2604.756	10.95448	-38.53466	0.1766723
34.35092	2602.691	11.00216	-38.51832	0.1678327
34.40487	2600.621	11.04665	-38.50238	0.1610034
34.45882	2598.54	11.08035	-38.48704	0.1563704
34.51277	2596.445	11.09615	-38.47243	0.1540668
34.56672	2594.339	11.09002	-38.45869	0.1541611
34.62067	2592.222	11.05764	-38.4459	0.156645
34.67461	2590.097	10.99706	-38.43409	0.1614291
34.72856	2587.963	10.90853	-38.42323	0.1683406
34.78251	2585.822	10.79804	-38.41329	0.1771362
34.83646	2583.68	10.6786	-38.40418	0.1875367
34.89041	2581.542	10.55943	-38.39583	0.1992417
34.94436	2579.412	10.44509	-38.38813	0.2119405
34.99831	2577.291	10.33918	-38.38099	0.2253059
35.05226	2575.179	10.24489	-38.37428	0.2390123
35.1062	2573.073	10.16422	-38.36789	0.2527586
35.16016	2570.976	10.09726	-38.36166	0.2662399
35.2141	2568.889	10.0423	-38.35547	0.2791736
35.26805	2566.812	9.999263	-38.34915	0.291305
35.322	2564.74	9.967716	-38.34256	0.3024147
35.37595	2562.67	9.944711	-38.33556	0.3123353
35.4299	2560.598	9.924643	-38.32804	0.3209316
35.48385	2558.524	9.901899	-38.31991	0.3281198
35.5378	2556.445	9.873384	-38.31105	0.333846
35.59175	2554.363	9.840049	-38.30137	0.3380966
35.6457	2552.281	9.805603	-38.29077	0.3408836
35.69965	2550.204	9.777301	-38.27913	0.3422436
35.7536	2548.135	9.762455	-38.26635	0.3422264
35.80754	2546.073	9.764008	-38.25233	0.3409251
35.8615	2544.022	9.778918	-38.23696	0.3384581
35.91544	2541.979	9.803886	-38.22019	0.3349683
35.96939	2539.943	9.835158	-38.20193	0.3305985
36.02334	2537.911	9.86805	-38.18214	0.3255011
36.07729	2535.881	9.897542	-38.16077	0.3198155
36.13124	2533.857	9.92089	-38.13784	0.3136729
36.18519	2531.837	9.936016	-38.11335	0.3072011
36.23914	2529.819	9.941263	-38.08736	0.3005436
36.29309	2527.8	9.936573	-38.05991	0.2938637
36.34703	2525.777	9.924251	-38.03112	0.2873372
36.40099	2523.747	9.904633	-38.00108	0.2811464
36.45493	2521.709	9.87881	-37.96991	0.2754869
36.50888	2519.661	9.848654	-37.93777	0.2705503
36.56283	2517.601	9.815885	-37.90479	0.2665347
36.61678	2515.533	9.780554	-37.87109	0.263617
36.67073	2513.462	9.738401	-37.83681	0.2619443
36.72468	2511.391	9.686698	-37.80204	0.261625
36.77863	2509.322	9.625824	-37.76686	0.2627105
36.83258	2507.255	9.558416	-37.73133	0.2652162
36.88653	2505.192	9.488717	-37.69549	0.269107
36.94048	2503.135	9.424088	-37.65932	0.2742971
36.99443	2501.086	9.369966	-37.62282	0.2806669
37.04837	2499.042	9.328282	-37.58591	0.2880532
37.10232	2496.999	9.301185	-37.54853	0.2962682
37.15627	2494.954	9.28983	-37.51062	0.3050824
37.21022	2492.907	9.294535	-37.47211	0.3142283
37.26417	2490.86	9.318624	-37.43297	0.3234054
37.31812	2488.813	9.364725	-37.39318	0.3323172
37.37207	2486.767	9.432505	-37.35276	0.3406637
37.42602	2484.723	9.515989	-37.31174	0.3481668
37.47997	2482.686	9.606973	-37.27019	0.3545752
37.53392	2480.658	9.699962	-37.22818	0.3596781
37.58786	2478.643	9.789388	-37.18581	0.3633138
37.64182	2476.641	9.871139	-37.14316	0.3653604
37.69576	2474.653	9.943216	-37.10035	0.3657518
37.74971	2472.672	10.00708	-37.05748	0.3644806
37.80366	2470.694	10.0627	-37.01468	0.3616202
37.85761	2468.72	10.1086	-36.97202	0.3572975
37.91156	2466.747	10.14196	-36.92958	0.351694
37.96551	2464.77	10.16083	-36.88741	0.3450103
38.01946	2462.78	10.16572	-36.84556	0.3374685
38.07341	2460.774	10.15959	-36.80406	0.3292912
38.12736	2458.759	10.14351	-36.76293	0.3206811
38.1813	2456.741	10.11729	-36.72223	0.3118314
38.23526	2454.725	10.0828	-36.682	0.30292
38.2892	2452.715	10.04188	-36.64232	0.294082
38.34315	2450.716	9.991978	-36.60326	0.2854383
38.3971	2448.731	9.933006	-36.5649	0.2770749
38.45105	2446.763	9.863022	-36.52735	0.2690634
38.505	2444.809	9.779803	-36.49073	0.261465
38.55895	2442.867	9.683427	-36.45513	0.2543154
38.6129	2440.93	9.57503	-36.42068	0.2476222
38.66685	2438.988	9.461294	-36.3875	0.2413663
38.72079	2437.038	9.349422	-36.35566	0.2354901
38.77475	2435.081	9.242383	-36.32524	0.2299078
38.82869	2433.117	9.140732	-36.29629	0.2245126
38.88264	2431.146	9.045654	-36.2688	0.2191874
38.93659	2429.171	8.95835	-36.24273	0.2137947
38.99054	2427.198	8.877951	-36.218	0.2081915
39.04449	2425.234	8.801744	-36.19451	0.2022467
39.09844	2423.283	8.729755	-36.17211	0.1958621
39.15239	2421.351	8.662046	-36.15068	0.1890072
39.20634	2419.441	8.601613	-36.13007	0.1816966
39.26029	2417.555	8.5548	-36.11014	0.1740304
39.31424	2415.691	8.528038	-36.09074	0.1661744
39.36819	2413.843	8.522542	-36.07174	0.1583739
39.42213	2412.002	8.532896	-36.05301	0.150955
39.47609	2410.16	8.55911	-36.03444	0.1443287
39.53003	2408.313	8.601538	-36.01592	0.1389648
39.58398	2406.459	8.656143	-35.99737	0.1353427
39.63793	2404.594	8.717322	-35.97871	0.1338864
39.69188	2402.715	8.777514	-35.95991	0.1348544
39.74583	2400.819	8.831612	-35.94094	0.1382813
39.79978	2398.904	8.878426	-35.92177	0.1439719
39.85373	2396.974	8.916951	-35.9024	0.1515637
39.90768	2395.033	8.945732	-35.88284	0.1606127
39.96162	2393.084	8.962637	-35.86306	0.170681
40.01558	2391.127	8.965395	-35.84306	0.1813642
40.06952	2389.168	8.952785	-35.82283	0.1923156
40.12347	2387.213	8.924664	-35.80236	0.2032292
40.17742	2385.265	8.887415	-35.78165	0.2138371
40.23137	2383.323	8.85022	-35.7607	0.2239215
40.28532	2381.383	8.819443	-35.73949	0.2332766
40.33927	2379.44	8.801761	-35.71804	0.2417331
40.39322	2377.492	8.802635	-35.69634	0.2491384
40.44717	2375.537	8.822167	-35.67442	0.2553689
40.50112	2373.577	8.859124	-35.65229	0.2603289
40.55507	2371.614	8.912026	-35.62998	0.2639385
40.60902	2369.647	8.978437	-35.60756	0.2661545
40.66296	2367.675	9.056001	-35.5851	0.2669672
40.71692	2365.697	9.138988	-35.56271	0.2664045
40.77086	2363.714	9.218773	-35.54048	0.2645302
40.82481	2361.726	9.288967	-35.51852	0.2614453
40.87876	2359.733	9.349435	-35.49691	0.2572743
40.93271	2357.741	9.401532	-35.47573	0.252144
40.98666	2355.754	9.445088	-35.45502	0.2461968
41.04061	2353.777	9.481376	-35.43479	0.2395585
41.09456	2351.812	9.513633	-35.41504	0.2323567
41.14851	2349.863	9.543967	-35.39573	0.2247041
41.20245	2347.931	9.576524	-35.37679	0.2167049
41.2564	2346.015	9.618149	-35.35812	0.2084403
41.31035	2344.11	9.673258	-35.33964	0.1999758
41.3643	2342.21	9.735859	-35.32124	0.1913506
41.41825	2340.31	9.798406	-35.30279	0.1825894
41.4722	2338.406	9.855264	-35.28421	0.1736952
41.52615	2336.499	9.899591	-35.26541	0.1646636
41.5801	2334.591	9.925273	-35.24633	0.1554745
41.63405	2332.683	9.924042	-35.22691	0.1461027
41.688	2330.776	9.886015	-35.20713	0.1365411
41.74195	2328.872	9.807444	-35.18701	0.1267921
41.79589	2326.974	9.693386	-35.16652	0.116885
41.84985	2325.085	9.555291	-35.14571	0.1068725
41.90379	2323.206	9.409527	-35.12457	0.09687262
41.95774	2321.337	9.268617	-35.10314	0.08708528
42.01169	2319.479	9.139272	-35.08141	0.07780749
42.06564	2317.633	9.024486	-35.05941	0.06945619
42.11959	2315.8	8.925735	-35.03714	0.06258906
42.17354	2313.979	8.844574	-35.01459	0.05790327
42.22749	2312.167	8.776464	-34.99172	0.05608373
42.28144	2310.36	8.716871	-34.96849	0.05749496
42.33539	2308.555	8.663046	-34.94484	0.06198189
42.38934	2306.75	8.611695	-34.92069	0.06898919
42.44328	2304.941	8.558808	-34.89598	0.0778833
42.49723	2303.123	8.500954	-34.87062	0.08815015
42.55118	2301.297	8.437577	-34.84452	0.09941178
42.60513	2299.463	8.372911	-34.81767	0.1113958
42.65908	2297.625	8.317002	-34.79002	0.1238845
42.71303	2295.781	8.277124	-34.76163	0.1366822
42.76698	2293.931	8.256397	-34.73254	0.1496137
42.82093	2292.074	8.256346	-34.70282	0.1625123
42.87488	2290.211	8.275657	-34.67258	0.1752204
42.92883	2288.344	8.311996	-34.64192	0.1875818
42.98278	2286.472	8.362864	-34.61097	0.1994503
43.03672	2284.594	8.423137	-34.57982	0.2106841
43.09068	2282.709	8.48873	-34.54859	0.2211383
43.14462	2280.82	8.553726	-34.51735	0.2306745
43.19857	2278.926	8.611377	-34.48615	0.239151
43.25252	2277.027	8.65917	-34.45504	0.2464474
43.30647	2275.119	8.698185	-34.42402	0.252465
43.36042	2273.204	8.731083	-34.39307	0.2571258
43.41437	2271.283	8.762569	-34.36219	0.2603695
43.46832	2269.36	8.797685	-34.33139	0.2621739
43.52227	2267.441	8.844172	-34.30067	0.2625337
43.57622	2265.529	8.909143	-34.27007	0.2614593
43.63017	2263.625	8.993653	-34.23963	0.2589709
43.68411	2261.731	9.09215	-34.20942	0.2551002
43.73806	2259.847	9.196437	-34.17953	0.2498985
43.79201	2257.974	9.29871	-34.15006	0.2434395
43.84596	2256.108	9.396067	-34.1211	0.2358354
43.89991	2254.248	9.489279	-34.09273	0.2272533
43.95386	2252.387	9.578362	-34.06502	0.2179237
44.00781	2250.52	9.664205	-34.03803	0.2081469
44.06176	2248.643	9.747925	-34.01179	0.1983082
44.11571	2246.759	9.833366	-33.98632	0.1889028
44.16965	2244.867	9.920949	-33.96159	0.1805216
44.22361	2242.971	10.00706	-33.93754	0.1738172
44.27755	2241.073	10.08783	-33.91409	0.1694182
44.3315	2239.18	10.1605	-33.89113	0.1678199
44.38545	2237.296	10.22447	-33.86853	0.1692848
44.4394	2235.428	10.27956	-33.84615	0.1738047
44.49335	2233.579	10.32413	-33.82384	0.1811046
44.5473	2231.754	10.35462	-33.80146	0.1907357
44.60125	2229.958	10.37185	-33.77885	0.2021774
44.6552	2228.186	10.38054	-33.75592	0.2149581
44.70915	2226.432	10.38728	-33.73253	0.2287094
44.7631	2224.688	10.39761	-33.7086	0.2432047
44.81704	2222.949	10.41155	-33.68405	0.2583419
44.87099	2221.207	10.42503	-33.6588	0.2741305
44.92494	2219.458	10.43497	-33.63283	0.2906332
44.97889	2217.702	10.43673	-33.60612	0.3079312
45.03284	2215.943	10.42765	-33.57871	0.3260712
45.08679	2214.186	10.40578	-33.55067	0.3450581
45.14074	2212.439	10.36681	-33.52208	0.3648114
45.19469	2210.704	10.30357	-33.49305	0.3851767
45.24864	2208.98	10.20991	-33.46371	0.4059221
45.30259	2207.263	10.0856	-33.43418	0.4267645
45.35654	2205.549	9.936691	-33.4046	0.4473733
45.41048	2203.839	9.769829	-33.37513	0.467406
45.46444	2202.13	9.596248	-33.34592	0.4865287
45.51838	2200.418	9.427982	-33.31716	0.5044333
45.57233	2198.697	9.275159	-33.28902	0.5208648
45.62628	2196.963	9.14374	-33.26169	0.5356095
45.68023	2195.209	9.032493	-33.23534	0.5485281
45.73418	2193.434	8.936275	-33.21017	0.5595307
45.78813	2191.636	8.844166	-33.18637	0.568583
45.84208	2189.821	8.745712	-33.1641	0.5756805
45.89603	2187.995	8.632007	-33.14356	0.5808489
45.94998	2186.16	8.499148	-33.12495	0.5841183
46.00393	2184.321	8.347878	-33.10844	0.5855335
46.05787	2182.48	8.179331	-33.09423	0.5851211
46.11182	2180.639	7.995274	-33.08246	0.5829175
46.16577	2178.797	7.803027	-33.07324	0.5789414
46.21972	2176.956	7.615417	-33.06663	0.5732188
46.27367	2175.111	7.447441	-33.06264	0.5657823
46.32762	2173.26	7.311516	-33.06121	0.5566712
46.38157	2171.403	7.220111	-33.06224	0.545919
46.43552	2169.544	7.181522	-33.06556	0.5335697
46.48947	2167.687	7.196294	-33.07092	0.5196615
46.54342	2165.836	7.258336	-33.07807	0.5042209
46.59737	2163.995	7.358161	-33.0867	0.487276
46.65131	2162.166	7.485315	-33.09648	0.4688403
46.70527	2160.352	7.62815	-33.10703	0.4489217
46.75921	2158.554	7.77481	-33.11797	0.4275275
46.81316	2156.775	7.914582	-33.1289	0.4046783
46.86711	2155.008	8.039929	-33.13942	0.3804144
46.92106	2153.248	8.147303	-33.14915	0.3547943
46.97501	2151.489	8.236118	-33.15775	0.3279006
47.02896	2149.73	8.308302	-33.16492	0.2998294
47.08291	2147.973	8.370229	-33.17039	0.2707038
47.13686	2146.217	8.427676	-33.17395	0.2406559
47.19081	2144.463	8.484418	-33.1754	0.2098518
47.24475	2142.713	8.541914	-33.17458	0.1784594
47.2987	2140.969	8.598548	-33.17136	0.146665
47.35265	2139.237	8.646226	-33.16564	0.114663
47.4066	2137.515	8.678614	-33.15738	0.08273383
47.46055	2135.803	8.693291	-33.14659	0.0515143
47.5145	2134.101	8.691826	-33.13329	0.02429157
47.56845	2132.402	8.680365	-33.1176	0.02512554
47.6224	2130.702	8.664631	-33.0996	0.05212357
47.67635	2128.991	8.6512	-33.07946	0.08214404
47.7303	2127.265	8.643305	-33.05733	0.1121881
47.78424	2125.521	8.640315	-33.03341	0.141627
47.8382	2123.757	8.635839	-33.00793	0.1701524
47.89214	2121.972	8.62437	-32.98111	0.1975221
47.94609	2120.167	8.606889	-32.95325	0.2235166
48.00004	2118.34	8.586488	-32.92466	0.2479193
48.05399	2116.496	8.56498	-32.89563	0.2705168
48.10794	2114.642	8.546027	-32.8665	0.2911087
48.16189	2112.788	8.53341	-32.83759	0.3095268
48.21584	2110.937	8.530028	-32.80919	0.32564
48.26979	2109.09	8.532001	-32.7816	0.339376
48.32374	2107.244	8.535952	-32.75504	0.3507247
48.37769	2105.399	8.542532	-32.72968	0.3597368
48.43164	2103.554	8.554149	-32.70564	0.3665147
48.48558	2101.705	8.570023	-32.68294	0.3712049
48.53953	2099.85	8.588573	-32.66157	0.3739955
48.59348	2097.987	8.606026	-32.64143	0.375128
48.64743	2096.119	8.616846	-32.62236	0.3748769
48.70138	2094.249	8.613111	-32.60417	0.3735356
48.75533	2092.384	8.586212	-32.58661	0.3713994
48.80928	2090.531	8.53239	-32.56942	0.3687509
48.86323	2088.697	8.452675	-32.55235	0.3658356
48.91718	2086.887	8.354085	-32.53511	0.3628588
48.97113	2085.11	8.24678	-32.51749	0.3599545
49.02507	2083.368	8.140757	-32.49924	0.3572141
49.07903	2081.656	8.045424	-32.48017	0.3546761
49.13297	2079.968	7.970876	-32.46008	0.3523312
49.18692	2078.298	7.92799	-32.4388	0.3501314
49.24087	2076.64	7.926241	-32.41615	0.3480005
49.29482	2074.987	7.967992	-32.39197	0.3458422
49.34877	2073.334	8.048177	-32.36615	0.3435522
49.40272	2071.681	8.15802	-32.33857	0.341011
49.45667	2070.027	8.285629	-32.30915	0.3381053
49.51062	2068.369	8.420928	-32.27785	0.3347158
49.56457	2066.705	8.555255	-32.24469	0.3307354
49.61852	2065.031	8.683604	-32.20968	0.3260581
49.67247	2063.348	8.805302	-32.1729	0.3205751
49.72641	2061.658	8.926013	-32.13444	0.3141822
49.78036	2059.968	9.049476	-32.09443	0.3067706
49.83431	2058.283	9.177641	-32.05304	0.2982314
49.88826	2056.605	9.313292	-32.01044	0.2884501
49.94221	2054.933	9.454101	-31.96685	0.277305
49.99616	2053.264	9.59386	-31.92247	0.2646643
50.05011	2051.589	9.724261	-31.87752	0.2504083
50.10406	2049.901	9.837412	-31.83219	0.2344398
50.158	2048.194	9.929737	-31.78669	0.2167314
50.21196	2046.464	9.996994	-31.74121	0.1973661
50.2659	2044.708	10.03306	-31.69593	0.1766114
50.31985	2042.929	10.03682	-31.65103	0.155057
50.3738	2041.131	10.01081	-31.60666	0.1338985
50.42775	2039.322	9.956752	-31.56295	0.1154208
50.4817	2037.512	9.878901	-31.52002	0.1035918
50.53565	2035.709	9.783012	-31.47793	0.1033247
50.5896	2033.918	9.678412	-31.43677	0.1168821
50.64355	2032.14	9.573434	-31.39655	0.1419452
50.6975	2030.376	9.475293	-31.35728	0.1747306
50.75145	2028.626	9.39072	-31.31894	0.2123957
50.8054	2026.888	9.32477	-31.28149	0.2531514
50.85934	2025.163	9.279272	-31.24485	0.2958542
50.9133	2023.454	9.25525	-31.20896	0.3397175
50.96724	2021.764	9.249405	-31.17372	0.3841325
51.02119	2020.093	9.255888	-31.13902	0.4285846
51.07514	2018.435	9.269254	-31.10474	0.4725991
51.12909	2016.787	9.286082	-31.07077	0.5157239
51.18304	2015.145	9.305326	-31.03703	0.5575258
51.23699	2013.502	9.326589	-31.00343	0.5975852
51.29094	2011.855	9.349296	-30.96991	0.6355018
51.34489	2010.203	9.375074	-30.93644	0.6709145
51.39883	2008.549	9.404601	-30.90301	0.7035028
51.45279	2006.894	9.436958	-30.86964	0.7330058
51.50673	2005.242	9.46891	-30.83636	0.7592052
51.56068	2003.594	9.494603	-30.80324	0.78193
51.61463	2001.951	9.506998	-30.77034	0.8010607
51.66858	2000.311	9.5026	-30.73774	0.8165331
51.72253	1998.675	9.477821	-30.70553	0.8283362
51.77648	1997.04	9.428903	-30.6738	0.8365047
51.83043	1995.404	9.357911	-30.64268	0.8411055
51.88438	1993.766	9.268991	-30.61227	0.8422372
51.93833	1992.127	9.165618	-30.58269	0.8400288
51.99228	1990.486	9.049533	-30.55407	0.8346471
52.04623	1988.842	8.92124	-30.5265	0.8262945
52.10017	1987.194	8.78048	-30.50009	0.8152093
52.15412	1985.544	8.625089	-30.47492	0.8016611
52.20807	1983.895	8.448525	-30.45106	0.785947
52.26202	1982.246	8.246121	-30.42858	0.7683771
52.31597	1980.598	8.021204	-30.40754	0.7492543
52.36992	1978.95	7.781099	-30.38799	0.7288584
52.42387	1977.304	7.536501	-30.36997	0.7074388
52.47782	1975.663	7.296224	-30.3535	0.6852103
52.53177	1974.031	7.069786	-30.33858	0.662344
52.58572	1972.411	6.8647	-30.32521	0.6389717
52.63966	1970.808	6.68435	-30.31334	0.615198
52.69361	1969.227	6.530153	-30.30292	0.5911084
52.74756	1967.668	6.400857	-30.29389	0.566758
52.80151	1966.128	6.295996	-30.28618	0.5421767
52.85546	1964.598	6.215463	-30.27968	0.517376
52.90941	1963.068	6.159014	-30.27428	0.4923639
52.96336	1961.533	6.127228	-30.26987	0.4671405
53.01731	1959.987	6.119601	-30.2663	0.4417078
53.07126	1958.426	6.137122	-30.26342	0.4160772
53.12521	1956.845	6.180166	-30.26105	0.3903001
53.17916	1955.246	6.245042	-30.25904	0.3644949
53.2331	1953.637	6.324522	-30.25723	0.3388897
53.28706	1952.018	6.412895	-30.25548	0.3138802
53.341	1950.39	6.50685	-30.25364	0.290091
53.39495	1948.755	6.604486	-30.25162	0.2684442
53.4489	1947.116	6.702381	-30.24935	0.2501936
53.50285	1945.476	6.798728	-30.24677	0.2368873
53.5568	1943.838	6.895464	-30.24385	0.2301266
53.61075	1942.202	6.998453	-30.24055	0.2311271
53.6647	1940.567	7.111409	-30.23684	0.2402282
53.71865	1938.928	7.233157	-30.23267	0.2567425
53.77259	1937.28	7.360007	-30.22803	0.2792414
53.82655	1935.621	7.487772	-30.22286	0.3060302
53.88049	1933.953	7.610402	-30.21713	0.3354958
53.93444	1932.274	7.721512	-30.21081	0.366265
53.98839	1930.583	7.815135	-30.20384	0.3972194
54.04234	1928.88	7.886729	-30.19619	0.427462
54.09629	1927.17	7.936399	-30.18781	0.4562713
54.15024	1925.455	7.966979	-30.17866	0.483046
54.20419	1923.738	7.980283	-30.16871	0.5072907
54.25814	1922.029	7.97743	-30.15795	0.5285963
54.31209	1920.334	7.959165	-30.14635	0.5466381
54.36604	1918.659	7.927742	-30.1339	0.5611667
54.41999	1917.006	7.887898	-30.12061	0.5720114
54.47393	1915.373	7.845295	-30.10648	0.5790724
54.52789	1913.753	7.807478	-30.09153	0.5823303
54.58183	1912.136	7.780612	-30.07576	0.581827
54.63578	1910.514	7.770049	-30.05916	0.5776619
54.68973	1908.88	7.778407	-30.04172	0.5699648
54.74368	1907.234	7.804561	-30.02345	0.5589127
54.79763	1905.579	7.845937	-30.00433	0.544717
54.85158	1903.917	7.898191	-29.98439	0.5276327
54.90553	1902.253	7.956771	-29.96365	0.5079472
54.95948	1900.593	8.017114	-29.94212	0.485995
55.01342	1898.941	8.074215	-29.91984	0.4621455
55.06738	1897.297	8.124232	-29.89685	0.4367843
55.12132	1895.666	8.166532	-29.87318	0.4103017
55.17527	1894.051	8.201037	-29.84888	0.3830616
55.22922	1892.451	8.229031	-29.82398	0.3553837
55.28317	1890.865	8.254693	-29.79851	0.3275319
55.33712	1889.285	8.285772	-29.77251	0.299692
55.39107	1887.708	8.329024	-29.746	0.271975
55.44502	1886.127	8.386423	-29.71899	0.2444241
55.49897	1884.538	8.454982	-29.69151	0.2170232
55.55292	1882.94	8.531487	-29.66356	0.1896998
55.60686	1881.337	8.611487	-29.63512	0.1623387
55.66082	1879.731	8.691059	-29.60616	0.1347827
55.71476	1878.124	8.766525	-29.57666	0.1068763
55.76871	1876.521	8.832891	-29.5466	0.0785379
55.82266	1874.93	8.886076	-29.51597	0.05002726
55.87661	1873.358	8.923934	-29.48476	0.02402371
55.93056	1871.802	8.944707	-29.45299	0.02411137
55.98451	1870.261	8.945711	-29.4207	0.05220502
56.03846	1868.733	8.926798	-29.38791	0.08493996
56.09241	1867.214	8.889401	-29.35468	0.1192775
56.14636	1865.698	8.835309	-29.32104	0.1545622
56.20031	1864.182	8.766304	-29.28703	0.1904074
56.25425	1862.66	8.680816	-29.25267	0.2264375
56.3082	1861.133	8.577869	-29.218	0.2622515
56.36215	1859.595	8.459969	-29.18303	0.2974133
56.4161	1858.046	8.333635	-29.14779	0.3314624
56.47005	1856.488	8.208321	-29.11229	0.363924
56.524	1854.925	8.091261	-29.07658	0.3943236
56.57795	1853.359	7.988171	-29.04066	0.4221999
56.6319	1851.796	7.903258	-29.00458	0.4471342
56.68585	1850.239	7.836075	-28.96837	0.4687562
56.7398	1848.688	7.783334	-28.93209	0.4867595
56.79375	1847.142	7.740378	-28.89582	0.5009014
56.84769	1845.602	7.701859	-28.85964	0.5110089
56.90165	1844.063	7.665003	-28.82363	0.5169842
56.95559	1842.521	7.629297	-28.78789	0.5188028
57.00954	1840.968	7.593345	-28.75247	0.5165121
57.06349	1839.4	7.558347	-28.71745	0.5102206
57.11744	1837.815	7.526642	-28.68288	0.5000951
57.17139	1836.212	7.501194	-28.64883	0.4863603
57.22534	1834.597	7.483068	-28.61533	0.4692931
57.27929	1832.975	7.469279	-28.58243	0.4492115
57.33324	1831.348	7.459239	-28.55016	0.4264731
57.38719	1829.721	7.456373	-28.51853	0.4014766
57.44114	1828.097	7.464216	-28.48755	0.3746461
57.49508	1826.479	7.486392	-28.45719	0.3464455
57.54903	1824.874	7.525425	-28.42739	0.3173713
57.60298	1823.282	7.580869	-28.39809	0.2879638
57.65693	1821.702	7.651031	-28.36919	0.2588176
57.71088	1820.132	7.732548	-28.34058	0.2305889
57.76483	1818.573	7.819349	-28.31214	0.2040333
57.81878	1817.026	7.901783	-28.28373	0.1800513
57.87273	1815.489	7.968964	-28.25524	0.1597553
57.92668	1813.961	8.012745	-28.22653	0.1444618
57.98063	1812.439	8.032542	-28.19749	0.1354568
58.03458	1810.923	8.032394	-28.168	0.1334798
58.08852	1809.415	8.018365	-28.13798	0.1382457
58.14248	1807.918	7.999493	-28.10734	0.148518
58.19642	1806.436	7.981328	-28.07599	0.1627153
58.25037	1804.969	7.965213	-28.04387	0.1794471
58.30432	1803.515	7.951826	-28.01093	0.1976967
58.35827	1802.074	7.939516	-27.97711	0.216804
58.41222	1800.642	7.927413	-27.94237	0.2363739
58.46617	1799.214	7.918645	-27.90667	0.2561915
58.52012	1797.783	7.914958	-27.86995	0.2761622
58.57407	1796.345	7.916629	-27.8322	0.2962634
58.62802	1794.899	7.922666	-27.79337	0.3165002
58.68196	1793.443	7.932421	-27.75348	0.3368803
58.73591	1791.974	7.943999	-27.71255	0.3573919
58.78986	1790.496	7.952499	-27.67062	0.3779898
58.84381	1789.012	7.955362	-27.62776	0.3985783
58.89776	1787.524	7.951022	-27.58404	0.419011
58.95171	1786.035	7.938732	-27.53953	0.4390846
59.00566	1784.546	7.919436	-27.49432	0.4585482
59.05961	1783.059	7.894696	-27.44849	0.4771124
59.11356	1781.573	7.869102	-27.40212	0.4944741
59.16751	1780.089	7.84827	-27.35529	0.5103348
59.22145	1778.605	7.835628	-27.30808	0.524413
59.27541	1777.121	7.832835	-27.26057	0.5364637
59.32935	1775.633	7.840911	-27.21283	0.5462694
59.3833	1774.139	7.858589	-27.16491	0.5536437
59.43725	1772.64	7.882095	-27.11684	0.5584384
59.4912	1771.137	7.909227	-27.06864	0.5605289
59.54515	1769.634	7.938552	-27.02032	0.5598162
59.5991	1768.136	7.968307	-26.97187	0.5562166
59.65305	1766.646	7.998222	-26.92327	0.5496721
59.707	1765.167	8.026916	-26.87451	0.5401503
59.76095	1763.701	8.051072	-26.82556	0.5276656
59.8149	1762.249	8.063767	-26.77638	0.5122795
59.86884	1760.812	8.057359	-26.72693	0.4941101
59.92279	1759.385	8.026508	-26.67715	0.4733349
59.97674	1757.96	7.969411	-26.627	0.4501849
60.03069	1756.531	7.887036	-26.57641	0.4249375
60.08464	1755.092	7.782389	-26.52534	0.3979153
60.13859	1753.642	7.661533	-26.47373	0.3694692
60.19254	1752.182	7.53263	-26.42153	0.3399752
60.24649	1750.714	7.406846	-26.36868	0.3098194
60.30044	1749.24	7.293043	-26.31515	0.2793944
60.35439	1747.768	7.195418	-26.26088	0.2490829
60.40834	1746.3	7.116234	-26.20579	0.2192525
60.46228	1744.837	7.054289	-26.14981	0.1902598
60.51624	1743.379	7.003015	-26.09286	0.1624477
60.57018	1741.931	6.954278	-26.03485	0.1361482
60.62413	1740.494	6.901864	-25.97569	0.1116894
60.67808	1739.07	6.843073	-25.91531	0.08940433
60.73203	1737.656	6.777973	-25.85361	0.06968001
60.78598	1736.256	6.709686	-25.79049	0.05303108
60.83993	1734.87	6.642972	-25.72585	0.04020486
60.89388	1733.494	6.583092	-25.65957	0.03217873
60.94783	1732.126	6.538911	-25.59152	0.02937324
61.00178	1730.764	6.516615	-25.5216	0.0304285
61.05573	1729.404	6.519943	-25.44969	0.03301241
61.10967	1728.046	6.550621	-25.3757	0.03547854
61.16362	1726.693	6.608694	-25.29954	0.03707654
61.21757	1725.344	6.694085	-25.22114	0.03757522
61.27152	1724	6.804119	-25.14043	0.03702731
61.32547	1722.659	6.933037	-25.05733	0.03566057
61.37942	1721.321	7.071907	-24.97176	0.03385067
61.43337	1719.985	7.211858	-24.88364	0.03209996
61.48732	1718.653	7.345774	-24.79286	0.03102042
61.54127	1717.324	7.467365	-24.69933	0.03121322
61.59521	1715.999	7.57544	-24.60293	0.03304709
61.64917	1714.677	7.668872	-24.50355	0.0364941
61.70311	1713.358	7.74545	-24.40106	0.04119518
61.75706	1712.041	7.80506	-24.29534	0.04666854
61.81101	1710.723	7.849598	-24.18627	0.05246841
61.86496	1709.408	7.882154	-24.07371	0.05820617
61.91891	1708.096	7.906238	-23.95754	0.06358254
61.97286	1706.791	7.927655	-23.83765	0.06835993
62.02681	1705.494	7.950758	-23.71393	0.07237113
62.08076	1704.206	7.973884	-23.58631	0.07552096
62.13471	1702.924	7.99288	-23.45469	0.07779571
62.18866	1701.644	8.004367	-23.319	0.07928739
62.24261	1700.364	8.005113	-23.17915	0.08021497
62.29655	1699.086	7.991192	-23.03508	0.08093221
62.3505	1697.809	7.960638	-22.88671	0.08192449
62.40445	1696.53	7.916282	-22.73397	0.08377128
62.4584	1695.249	7.863127	-22.57679	0.08707295
62.51235	1693.965	7.807174	-22.41506	0.0923339
62.5663	1692.681	7.75367	-22.24869	0.09986934
62.62025	1691.4	7.705842	-22.07756	0.1097533
62.6742	1690.119	7.666742	-21.90156	0.121845
62.72815	1688.841	7.638525	-21.72052	0.1358714
62.7821	1687.567	7.622745	-21.53427	0.1514869
62.83604	1686.299	7.61945	-21.34259	0.1683156
62.89	1685.04	7.62758	-21.14524	0.1859708
62.94394	1683.793	7.643383	-20.94196	0.2040847
62.99789	1682.56	7.660278	-20.73247	0.222293
63.05184	1681.341	7.671287	-20.51646	0.2402661
63.10579	1680.139	7.673516	-20.29362	0.2576826
63.15974	1678.955	7.669544	-20.06358	0.2742407
63.21369	1677.791	7.662054	-19.82597	0.2896826
63.26764	1676.645	7.652566	-19.58039	0.3037543
63.32159	1675.516	7.640268	-19.32639	0.3162589
63.37554	1674.403	7.625377	-19.06352	0.32702
63.42949	1673.306	7.608288	-18.79129	0.3359153
63.48344	1672.226	7.587359	-18.50919	0.3428718
63.53738	1671.164	7.562769	-18.21667	0.3478595
63.59133	1670.12	7.53548	-17.91315	0.3509156
63.64528	1669.098	7.504888	-17.59804	0.3521383
63.69923	1668.099	7.469897	-17.27071	0.3517209
63.75318	1667.122	7.428725	-16.93051	0.3499233
63.80713	1666.169	7.378169	-16.57676	0.3471004
63.86108	1665.238	7.315635	-16.2088	0.3436514
63.91503	1664.326	7.241835	-15.82593	0.3400418
63.96898	1663.428	7.161458	-15.42749	0.3367421
64.02293	1662.542	7.081833	-15.01279	0.334231
64.07687	1661.666	7.010552	-14.58118	0.3329547
64.13082	1660.8	6.953927	-14.13201	0.3332918
64.18478	1659.944	6.913255	-13.66463	0.3355469
64.23872	1659.101	6.883921	-13.1784	0.3399099
64.29267	1658.271	6.85635	-12.6727	0.346464
64.34662	1657.457	6.821293	-12.14693	0.3552275
64.40057	1656.658	6.776027	-11.60047	0.3660893
64.45452	1655.879	6.719893	-11.03276	0.3789078
64.50847	1655.121	6.655387	-10.44323	0.3934876
64.56242	1654.389	6.585224	-9.831292	0.4096614
64.61636	1653.686	6.512104	-9.196367	0.4272088
64.67032	1653.015	6.437967	-8.537874	0.4459542
64.72427	1652.377	6.366332	-7.855212	0.4657153
64.77821	1651.774	6.304116	-7.147799	0.4863766
64.83216	1651.203	6.259533	-6.415004	0.5078257
64.88611	1650.659	6.239461	-5.656212	0.53001
64.94006	1650.137	6.246318	-4.87079	0.5528799
64.99401	1649.637	6.276707	-4.05813	0.5764583
65.04796	1649.159	6.323175	-3.217567	0.6007245
65.10191	1648.704	6.377684	-2.348459	0.6257166
65.15586	1648.275	6.434164	-1.450138	0.6514438
65.20981	1647.874	6.487474	-0.5219448	0.6779143
65.26376	1647.504	6.533459	0.4368187	0.7050961
65.3177	1647.171	6.569967	1.426884	0.7329851
65.37165	1646.878	6.597355	2.448979	0.7615437
65.42561	1646.632	6.619363	3.503823	0.7907385
65.47955	1646.434	6.641675	4.592218	0.8205106
65.5335	1646.288	6.670158	5.714978	0.8508005
65.58745	1646.191	6.708799	6.87296	0.881557
65.6414	1646.146	6.76149	8.067053	0.912702
65.69535	1646.155	6.830529	9.298179	0.9440902
65.7493	1646.223	6.916292	10.56728	0.9756125
65.80325	1646.359	7.016758	11.87531	1.007109
65.85719	1646.569	7.126079	13.22323	1.038488
65.91115	1646.859	7.233844	14.61205	1.069568
65.9651	1647.233	7.329917	16.04273	1.10019
66.01904	1647.696	7.40672	17.51627	1.130208
66.07299	1648.253	7.462902	19.03366	1.159545
66.12694	1648.909	7.501241	20.5959	1.188093
66.18089	1649.664	7.527582	22.20395	1.215741
66.23484	1650.52	7.549102	23.85876	1.242452
66.28879	1651.476	7.569769	25.56125	1.268224
66.34274	1652.531	7.592917	27.31238	1.293092
66.39668	1653.681	7.620084	29.11306	1.317117
66.45064	1654.924	7.653927	30.96415	1.340381
66.50459	1656.261	7.696584	32.86653	1.363011
66.55853	1657.687	7.747058	34.82107	1.385183
66.61248	1659.201	7.803196	36.82859	1.407059
66.66644	1660.803	7.861742	38.88996	1.428914
66.72038	1662.5	7.917319	41.00591	1.450915
66.77433	1664.296	7.964906	43.17727	1.473379
66.82828	1666.199	8.002055	45.40476	1.496594
66.88223	1668.213	8.028728	47.68919	1.520987
66.93618	1670.343	8.045897	50.03124	1.546807
66.99013	1672.592	8.056255	52.4316	1.574422
67.04408	1674.961	8.06428	54.89097	1.604149
67.09802	1677.451	8.076702	57.40996	1.636236
67.15198	1680.064	8.099599	59.98927	1.671022
67.20592	1682.8	8.137674	62.62943	1.708575
67.25987	1685.663	8.190752	65.33105	1.749031
67.31382	1688.653	8.258041	68.09466	1.792397
67.36777	1691.775	8.339141	70.92086	1.838775
67.42172	1695.035	8.43434	73.81008	1.887995
67.47567	1698.437	8.541163	76.76285	1.939993
67.52962	1701.986	8.65249	79.77959	1.994651
67.58356	1705.688	8.762829	82.86072	2.051745
67.63751	1709.544	8.870122	86.00668	2.111189
67.69147	1713.563	8.972505	89.21776	2.172636
67.74541	1717.755	9.068349	92.49426	2.235866
67.79936	1722.125	9.155314	95.83641	2.300631
67.85331	1726.678	9.230232	99.24435	2.366609
67.90726	1731.417	9.295569	102.7183	2.43364
67.96121	1736.341	9.355158	106.2581	2.501286
68.01516	1741.454	9.413395	109.8638	2.569285
68.06911	1746.761	9.476915	113.5352	2.637272
68.12305	1752.265	9.550658	117.2723	2.705078
68.17701	1757.971	9.638419	121.0747	2.772281
68.23096	1763.882	9.741611	124.942	2.838652
68.2849	1769.998	9.859253	128.8738	2.903939
68.33885	1776.32	9.986411	132.8695	2.967889
68.39281	1782.85	10.11542	136.9288	3.030413
68.44675	1789.594	10.23881	141.0508	3.091272
68.5007	1796.556	10.35153	145.235	3.150369
68.55465	1803.746	10.45121	149.4807	3.207652
68.6086	1811.177	10.5389	153.7872	3.263098
68.66255	1818.854	10.61728	158.1537	3.316702
68.7165	1826.782	10.69062	162.5794	3.368528
68.77045	1834.961	10.76586	167.0635	3.418669
68.82439	1843.399	10.85005	171.6051	3.467194
68.87834	1852.1	10.94984	176.2031	3.514363
68.9323	1861.073	11.07274	180.8566	3.560216
68.98624	1870.321	11.22556	185.5644	3.604906
69.04019	1879.846	11.41329	190.3251	3.648531
69.09414	1889.65	11.63678	195.1373	3.691128
69.14809	1899.733	11.89175	199.9993	3.732761
69.20204	1910.1	12.16967	204.9092	3.773296
69.25599	1920.752	12.46044	209.8649	3.812632
69.30994	1931.694	12.75612	214.8638	3.850586
69.36388	1942.929	13.05387	219.9034	3.886997
69.41784	1954.466	13.35253	224.9804	3.921516
69.47179	1966.311	13.65112	230.0914	3.95391
69.52573	1978.467	13.94995	235.2325	3.983822
69.57968	1990.935	14.2497	240.3994	4.010918
69.63363	2003.719	14.55192	245.5873	4.034859
69.68758	2016.824	14.85836	250.791	4.055207
69.74153	2030.253	15.16986	256.0046	4.071552
69.79548	2044.008	15.48576	261.222	4.083476
69.84943	2058.09	15.80486	266.4361	4.090559
69.90338	2072.496	16.12468	271.6396	4.092349
69.95733	2087.225	16.44069	276.8247	4.088364
70.01128	2102.272	16.74881	281.9828	4.07818
70.06522	2117.637	17.04452	287.105	4.061396
70.11917	2133.319	17.32444	292.1818	4.037591
70.17313	2149.317	17.58634	297.203	4.006526
70.22707	2165.633	17.83083	302.1584	3.967905
70.28102	2182.263	18.06111	307.0369	3.921573
70.33497	2199.206	18.28045	311.8273	3.867454
70.38892	2216.457	18.49176	316.5179	3.805402
70.44287	2234.007	18.69485	321.0969	3.73556
70.49682	2251.85	18.88824	325.5524	3.658022
70.55077	2269.983	19.0726	329.8724	3.573
70.60471	2288.409	19.2492	334.0446	3.480559
70.65867	2307.129	19.42286	338.0574	3.381239
70.71262	2326.147	19.60269	341.8987	3.275393
70.76656	2345.464	19.79533	345.5573	3.163506
70.82051	2365.084	20.00553	349.0219	3.046229
70.87446	2385.008	20.23326	352.2816	2.923902
70.92841	2405.241	20.47476	355.3266	2.797502
70.98236	2425.793	20.72767	358.1472	2.667678
71.03631	2446.675	20.99258	360.7343	2.535128
71.09026	2467.894	21.26953	363.0798	2.400758
71.14421	2489.46	21.5547	365.1758	2.264895
71.19816	2511.37	21.84377	367.016	2.128669
71.25211	2533.618	22.13451	368.594	1.992621
71.30605	2556.196	22.42226	369.9048	1.857596
71.36	2579.095	22.69781	370.9438	1.723786
71.41396	2602.308	22.95408	371.7077	1.592307
71.4679	2625.824	23.1879	372.1937	1.463628
71.52185	2649.624	23.39809	372.3997	1.338464
71.5758	2673.683	23.58318	372.325	1.217671
71.62975	2697.976	23.73961	371.9688	1.101682
71.6837	2722.472	23.86153	371.3319	0.9919567
71.73765	2747.136	23.94542	370.4154	0.889644
71.7916	2771.931	23.98864	369.2213	0.7963808
71.84554	2796.818	23.99143	367.7523	0.7144961
71.8995	2821.757	23.95811	366.0114	0.6465472
71.95345	2846.703	23.89845	364.0028	0.5960626
72.00739	2871.607	23.82313	361.7309	0.5661657
72.06134	2896.415	23.73702	359.2008	0.5586811
72.11529	2921.068	23.64088	356.4178	0.5734964
72.16924	2945.507	23.53188	353.3879	0.6078088
72.22319	2969.677	23.4041	350.1176	0.6578135
72.27714	2993.525	23.25144	346.6134	0.7195602
72.33109	3016.998	23.07253	342.8824	0.7895267
72.38504	3040.049	22.8672	338.9316	0.8656684
72.43899	3062.632	22.63634	334.7689	0.945618
72.49294	3084.705	22.38146	330.4019	1.028144
72.54688	3106.231	22.10304	325.8388	1.11199
72.60083	3127.179	21.80463	321.0877	1.196755
72.65479	3147.523	21.4922	316.1574	1.281298
72.70873	3167.241	21.17342	311.0566	1.365137
72.76268	3186.311	20.86236	305.7943	1.447672
72.81663	3204.713	20.57574	300.38	1.528289
72.87058	3222.426	20.3228	294.8233	1.60671
72.92453	3239.436	20.10611	289.1343	1.682117
72.97848	3255.74	19.92108	283.3232	1.754051
73.03242	3271.346	19.76661	277.4007	1.821969
73.08637	3286.265	19.63692	271.3778	1.885359
73.14033	3300.511	19.52352	265.2655	1.94377
73.19427	3314.096	19.41733	259.0755	1.996661
73.24822	3327.03	19.31105	252.8194	2.043647
73.30217	3339.323	19.20009	246.5091	2.084429
73.35612	3350.994	19.08306	240.1569	2.11873
73.41007	3362.067	18.96459	233.7751	2.146429
73.46402	3372.574	18.85248	227.376	2.167471
73.51797	3382.545	18.7563	220.972	2.181952
73.57191	3392.012	18.68292	214.5757	2.190085
73.62587	3401.003	18.636	208.1994	2.191994
73.67982	3409.543	18.618	201.8554	2.188153
73.73376	3417.649	18.62853	195.5557	2.178918
73.78771	3425.343	18.65985	189.3124	2.164814
73.84166	3432.648	18.69563	183.1371	2.14609
73.89561	3439.594	18.71789	177.041	2.123479
73.94956	3446.209	18.71753	171.0348	2.097431
74.00351	3452.522	18.68983	165.1288	2.068489
74.05746	3458.557	18.63178	159.3326	2.037286
74.1114	3464.334	18.54463	153.6556	2.004047
74.16536	3469.875	18.43177	148.1058	1.969605
74.21931	3475.203	18.29835	142.691	1.934376
74.27325	3480.341	18.14893	137.4181	1.898824
74.3272	3485.31	17.9898	132.2931	1.863536
74.38116	3490.123	17.82916	127.3212	1.828645
74.4351	3494.791	17.67241	122.5066	1.794894
74.48905	3499.321	17.52035	117.8526	1.76258
74.543	3503.717	17.37567	113.3615	1.73214
74.59695	3507.985	17.2406	109.0351	1.703592
74.6509	3512.131	17.1133	104.8737	1.677489
74.70485	3516.159	16.99108	100.8773	1.653902
74.7588	3520.075	16.87314	97.04462	1.632871
74.81274	3523.883	16.76194	93.37395	1.614459
74.8667	3527.577	16.66005	89.86289	1.59826
74.92065	3531.153	16.5643	86.50812	1.584307
74.97459	3534.608	16.47746	83.3059	1.572166
75.02854	3537.948	16.40859	80.25195	1.561405
75.08249	3541.18	16.36613	77.34142	1.551606
75.13644	3544.313	16.35586	74.56931	1.542037
75.19039	3547.354	16.37809	71.92998	1.532379
75.24434	3550.315	16.4285	69.41775	1.522037
75.29829	3553.198	16.49714	67.02668	1.510582
75.35223	3556.006	16.57297	64.75089	1.497392
75.40619	3558.737	16.6475	62.58421	1.482238
75.46014	3561.391	16.7173	60.52064	1.464717
75.51408	3563.97	16.78099	58.5542	1.444527
75.56803	3566.471	16.83681	56.67895	1.42149
75.62199	3568.898	16.88112	54.88925	1.395327
75.67593	3571.251	16.9105	53.17953	1.366066
75.72988	3573.531	16.92595	51.54457	1.333652
75.78383	3575.739	16.92537	49.97939	1.29817
75.83778	3577.876	16.9039	48.47936	1.259648
75.89173	3579.954	16.85806	47.04007	1.218363
75.94568	3581.99	16.78482	45.65749	1.174519
75.99963	3583.999	16.68255	44.32786	1.128396
76.05357	3585.991	16.55073	43.04775	1.080358
76.10753	3587.973	16.39093	41.81411	1.030738
76.16148	3589.952	16.20586	40.62413	0.9800429
76.21542	3591.934	15.99841	39.47536	0.9287593
76.26937	3593.923	15.77319	38.36565	0.8774305
76.32332	3595.917	15.53772	37.29306	0.826666
76.37727	3597.907	15.29961	36.25594	0.7770284
76.43122	3599.884	15.06474	35.25277	0.7291909
76.48517	3601.833	14.83724	34.2822	0.6837604
76.53912	3603.744	14.61808	33.34307	0.6413716
76.59306	3605.603	14.4092	32.43434	0.6025476
76.64702	3607.403	14.21542	31.55501	0.5677747
76.70097	3609.14	14.04289	30.70416	0.5373256
76.75491	3610.819	13.9001	29.88093	0.5112687
76.80886	3612.448	13.79907	29.08443	0.4894873
76.86282	3614.027	13.74522	28.31383	0.4716894
76.91676	3615.556	13.73897	27.56824	0.4575767
76.97071	3617.032	13.77754	26.84678	0.4468556
77.02466	3618.451	13.85366	26.14855	0.4393852
77.07861	3619.813	13.95788	25.47264	0.4352432
77.13256	3621.117	14.08302	24.81812	0.4347449
77.18651	3622.359	14.22509	24.18408	0.438407
77.24046	3623.531	14.38142	23.56957	0.4468347
77.2944	3624.629	14.54964	22.97367	0.460612
77.34836	3625.654	14.72548	22.39547	0.4801156
77.40231	3626.61	14.89958	21.83407	0.505492
77.45625	3627.506	15.06248	21.28862	0.5365365
77.5102	3628.345	15.21221	20.75827	0.5727662
77.56415	3629.131	15.34942	20.24225	0.6134894
77.6181	3629.865	15.47542	19.73983	0.6578304
77.67205	3630.552	15.59113	19.25035	0.7048652
77.726	3631.203	15.69438	18.7732	0.7536031
77.77995	3631.82	15.77824	18.30788	0.8030798
77.83389	3632.404	15.83733	17.85397	0.8523549
77.88785	3632.965	15.86618	17.41112	0.9005827
77.9418	3633.51	15.86425	16.97913	0.9469535
77.99574	3634.044	15.83632	16.55785	0.9907418
78.04969	3634.566	15.78945	16.14726	1.031308
78.10365	3635.076	15.72979	15.74748	1.068093
78.15759	3635.574	15.66092	15.3587	1.100685
78.21154	3636.062	15.58512	14.98123	1.128777
78.26549	3636.544	15.50404	14.61549	1.152199
78.31944	3637.027	15.41863	14.26195	1.170918
78.37339	3637.523	15.3347	13.92116	1.185008
78.42734	3638.041	15.26434	13.59366	1.194682
78.48129	3638.586	15.21702	13.28004	1.200247
78.53523	3639.161	15.19606	12.98085	1.20213
78.58918	3639.767	15.19775	12.69667	1.200847
78.64314	3640.395	15.21036	12.42796	1.197032
78.69708	3641.035	15.22083	12.17513	1.191392
78.75103	3641.687	15.2232	11.93851	1.184716
78.80498	3642.352	15.21396	11.7183	1.177842
78.85893	3643.035	15.19577	11.51468	1.171602
78.91288	3643.737	15.17698	11.32766	1.166844
78.96683	3644.453	15.16586	11.15721	1.164357
79.02077	3645.18	15.16666	11.00318	1.164871
79.07472	3645.916	15.17792	10.86537	1.168984
79.12868	3646.655	15.18993	10.74343	1.17716
79.18262	3647.384	15.19389	10.63693	1.189652
79.23657	3648.093	15.18846	10.54533	1.20652
79.29052	3648.775	15.18213	10.468	1.227648
79.34447	3649.426	15.18383	10.40426	1.252734
79.39842	3650.045	15.19676	10.35334	1.281368
79.45237	3650.634	15.21965	10.31447	1.313001
79.50632	3651.19	15.25183	10.28688	1.346983
79.56026	3651.711	15.29319	10.26974	1.382579
79.61422	3652.2	15.34482	10.26227	1.41896
79.66817	3652.665	15.40782	10.26361	1.455257
79.72211	3653.106	15.47866	10.27294	1.490551
79.77606	3653.521	15.55557	10.2894	1.523937
79.83001	3653.904	15.63197	10.31217	1.554539
79.88396	3654.258	15.6992	10.34042	1.581553
79.93791	3654.586	15.74664	10.37336	1.604226
79.99186	3654.891	15.77207	10.41025	1.621875
80.04581	3655.184	15.77917	10.45041	1.633913
80.09976	3655.479	15.77544	10.49327	1.639838
80.15371	3655.787	15.76711	10.53831	1.639286
80.20766	3656.115	15.76033	10.58513	1.631986
80.2616	3656.465	15.75831	10.63341	1.617789
80.31555	3656.838	15.75856	10.6829	1.596668
80.36951	3657.233	15.7559	10.73345	1.568702
80.42345	3657.65	15.74664	10.78493	1.534103
80.4774	3658.087	15.73197	10.83727	1.493187
80.53135	3658.55	15.7151	10.89046	1.44642
80.5853	3659.038	15.69479	10.94451	1.394413
80.63925	3659.552	15.66635	10.99944	1.33795
80.6932	3660.089	15.62638	11.05526	1.277959
80.74715	3660.653	15.56779	11.11197	1.215531
80.80109	3661.242	15.48364	11.16954	1.151885
80.85505	3661.855	15.37475	11.22794	1.088344
80.909	3662.482	15.24971	11.2871	1.026321
80.96294	3663.122	15.12267	11.34688	0.9672741
81.01689	3663.776	15.00806	11.40713	0.9126518
81.07084	3664.447	14.91646	11.46762	0.8638352
81.12479	3665.132	14.85059	11.52807	0.8220406
81.17874	3665.829	14.80621	11.58812	0.7882203
81.23269	3666.533	14.78004	11.64734	0.7629711
81.28664	3667.244	14.77127	11.70523	0.7464802
81.34059	3667.961	14.78028	11.76119	0.7385178
81.39454	3668.69	14.80694	11.8146	0.7385014
81.44849	3669.431	14.84977	11.8648	0.7456228
81.50243	3670.182	14.90473	11.91106	0.7589877
81.55638	3670.939	14.96969	11.95267	0.7777441
81.61034	3671.704	15.04372	11.98885	0.8011572
81.66428	3672.479	15.12461	12.01884	0.8286435
81.71823	3673.263	15.21059	12.04184	0.8597537
81.77218	3674.052	15.30365	12.05701	0.8941299
81.82613	3674.842	15.40777	12.06346	0.9314571
81.88008	3675.63	15.52441	12.0603	0.9714369
81.93403	3676.416	15.65195	12.0466	1.013761
81.98798	3677.201	15.78995	12.02141	1.058087
82.04192	3677.986	15.93638	11.98383	1.104024
82.09588	3678.773	16.08339	11.93292	1.151132
82.14983	3679.565	16.21886	11.8678	1.19895
82.20377	3680.361	16.33064	11.78762	1.246993
82.25772	3681.159	16.41173	11.69159	1.294783
82.31167	3681.958	16.45691	11.57894	1.341851
82.36562	3682.751	16.46326	11.44904	1.387758
82.41957	3683.539	16.43303	11.30125	1.4321
82.47352	3684.319	16.38156	11.13504	1.474517
82.52747	3685.087	16.33202	10.94994	1.51468
82.58142	3685.838	16.305	10.74555	1.552308
82.63537	3686.569	16.31549	10.52157	1.587162
82.68932	3687.279	16.37411	10.27781	1.619056
82.74326	3687.974	16.48225	10.01412	1.647859
82.79721	3688.655	16.63503	9.73046	1.6735
82.85117	3689.331	16.82517	9.426828	1.695959
82.90511	3689.997	17.0451	9.103332	1.715259
82.95906	3690.656	17.28333	8.760092	1.731455
83.01301	3691.303	17.52717	8.39729	1.744618
83.06696	3691.943	17.76472	8.015092	1.754838
83.12091	3692.576	17.98235	7.613717	1.762227
83.17486	3693.204	18.16657	7.193355	1.766915
83.22881	3693.819	18.30914	6.754202	1.769038
83.28275	3694.411	18.41081	6.296456	1.768724
83.33671	3694.976	18.48168	5.82028	1.766091
83.39066	3695.511	18.53631	5.325872	1.761236
83.4446	3696.014	18.58949	4.813414	1.754248
83.49855	3696.487	18.6495	4.283088	1.745219
83.5525	3696.93	18.72175	3.735089	1.734255
83.60645	3697.349	18.80807	3.169604	1.721493
83.6604	3697.745	18.90635	2.586879	1.707081
83.71435	3698.124	19.01415	1.987157	1.691187
83.7683	3698.481	19.12181	1.370697	1.673987
83.82225	3698.812	19.21869	0.737741	1.65567
83.8762	3699.108	19.29186	0.08856481	1.636415
83.93015	3699.363	19.32902	-0.5765664	1.6164
83.98409	3699.566	19.32512	-1.257367	1.595789
84.03804	3699.714	19.28333	-1.953516	1.574714
84.092	3699.803	19.21535	-2.664683	1.553283
84.14594	3699.837	19.13833	-3.390482	1.531557
84.19989	3699.819	19.07323	-4.130511	1.50957
84.25384	3699.755	19.03958	-4.884313	1.487322
84.30779	3699.642	19.04853	-5.651401	1.464788
84.36174	3699.474	19.09869	-6.431226	1.441893
84.41569	3699.245	19.18096	-7.223226	1.418565
84.46964	3698.95	19.28973	-8.026807	1.394743
84.52358	3698.589	19.42	-8.841354	1.370379
84.57754	3698.16	19.56491	-9.666231	1.345469
84.63148	3697.666	19.71926	-10.50075	1.320018
84.68543	3697.105	19.87832	-11.34419	1.294048
84.73938	3696.481	20.03365	-12.19575	1.267581
84.79333	3695.8	20.175	-13.05459	1.240628
84.84728	3695.064	20.29551	-13.91978	1.213197
84.90123	3694.278	20.39181	-14.79034	1.185291
84.95518	3693.441	20.46482	-15.66523	1.156955
85.00912	3692.552	20.52238	-16.54337	1.128298
85.06308	3691.613	20.57555	-17.42362	1.099527
85.11703	3690.624	20.62868	-18.30487	1.070964
85.17097	3689.586	20.6803	-19.18601	1.043077
85.22492	3688.5	20.72566	-20.06591	1.016489
85.27887	3687.372	20.75906	-20.94351	0.9919958
85.33282	3686.199	20.77648	-21.81775	0.9705378
85.38677	3684.984	20.77814	-22.68764	0.9531791
85.44072	3683.73	20.76325	-23.55219	0.9410101
85.49467	3682.442	20.72894	-24.41044	0.9350438
85.54861	3681.115	20.67008	-25.26151	0.9360908
85.60257	3679.744	20.58239	-26.10451	0.9446399
85.65652	3678.32	20.46625	-26.93866	0.9608541
85.71046	3676.834	20.32525	-27.76321	0.9845332
85.76441	3675.282	20.16365	-28.57747	1.015202
85.81837	3673.669	19.98796	-29.38081	1.052138
85.87231	3671.993	19.80528	-30.1727	1.094479
85.92626	3670.255	19.61871	-30.95269	1.14126
85.98021	3668.452	19.42926	-31.72038	1.191472
86.03416	3666.587	19.23433	-32.47544	1.244116
86.08811	3664.657	19.03105	-33.2176	1.298207
86.14206	3662.661	18.81957	-33.94663	1.352839
86.19601	3660.601	18.60332	-34.66235	1.407157
86.24995	3658.481	18.38514	-35.36464	1.460409
86.30391	3656.304	18.16431	-36.05337	1.511943
86.35786	3654.072	17.94232	-36.72852	1.561218
86.4118	3651.786	17.72388	-37.39009	1.607814
86.46575	3649.449	17.51497	-38.0381	1.651413
86.5197	3647.062	17.3207	-38.67263	1.691769
86.57365	3644.627	17.14548	-39.29376	1.728697
86.6276	3642.148	16.99177	-39.90166	1.762035
86.68155	3639.635	16.86122	-40.49648	1.791657
86.7355	3637.094	16.74954	-41.07843	1.817437
86.78944	3634.533	16.65227	-41.64772	1.839244
86.8434	3631.959	16.56469	-42.20456	1.856947
86.89735	3629.382	16.48054	-42.74916	1.870426
86.95129	3626.807	16.39779	-43.28173	1.879597
87.00524	3624.24	16.31903	-43.80249	1.884441
87.0592	3621.679	16.24431	-44.31162	1.885023
87.11314	3619.122	16.1759	-44.80932	1.881472
87.16709	3616.563	16.11734	-45.29579	1.874011
87.22104	3614	16.07199	-45.77123	1.862937
87.27499	3611.427	16.04389	-46.23587	1.848605
87.32894	3608.836	16.03658	-46.68997	1.831439
87.38289	3606.221	16.04651	-47.13383	1.811873
87.43684	3603.584	16.06549	-47.56775	1.790381
87.49078	3600.93	16.08283	-47.99202	1.767416
87.54473	3598.267	16.08761	-48.40695	1.743425
87.59869	3595.602	16.07241	-48.81289	1.718812
87.65263	3592.937	16.03602	-49.21019	1.69396
87.70658	3590.27	15.98377	-49.59921	1.669213
87.76053	3587.599	15.92353	-49.98033	1.64489
87.81448	3584.918	15.86105	-50.35397	1.621284
87.86843	3582.221	15.79654	-50.72056	1.598675
87.92238	3579.495	15.73277	-51.08057	1.57731
87.97633	3576.736	15.67494	-51.43451	1.557409
88.03027	3573.948	15.62902	-51.7829	1.539132
88.08423	3571.14	15.60223	-52.12628	1.52257
88.13818	3568.322	15.60261	-52.46518	1.507742
88.19212	3565.502	15.63467	-52.80008	1.494596
88.24607	3562.683	15.68806	-53.13148	1.48301
88.30003	3559.865	15.74937	-53.45984	1.472814
88.35397	3557.047	15.80638	-53.78556	1.463822
88.40792	3554.228	15.84753	-54.10905	1.455847
88.46187	3551.4	15.86521	-54.43062	1.448715
88.51582	3548.556	15.85801	-54.75055	1.442258
88.56977	3545.694	15.82884	-55.06905	1.436334
88.62372	3542.809	15.78787	-55.38626	1.430843
88.67767	3539.899	15.74865	-55.7023	1.425717
88.73161	3536.961	15.72374	-56.01719	1.420922
88.78556	3533.994	15.72659	-56.33092	1.416437
88.83952	3530.996	15.7635	-56.64344	1.412257
88.89346	3527.965	15.8369	-56.95461	1.408397
88.94741	3524.901	15.94358	-57.26429	1.404889
89.00136	3521.814	16.07133	-57.57228	1.401788
89.05531	3518.71	16.20189	-57.87836	1.399173
89.10926	3515.593	16.31866	-58.18227	1.397184
89.16321	3512.466	16.40468	-58.48375	1.396002
89.21716	3509.327	16.44984	-58.78255	1.395865
89.2711	3506.171	16.45018	-59.07838	1.397058
89.32506	3502.991	16.40872	-59.37102	1.399905
89.37901	3499.781	16.33621	-59.66018	1.404748
89.43295	3496.537	16.24503	-59.94559	1.411939
89.4869	3493.255	16.14797	-60.22696	1.421805
89.54086	3489.937	16.05336	-60.50397	1.434654
89.5948	3486.586	15.9732	-60.77636	1.450719
89.64875	3483.213	15.91581	-61.04383	1.47017
89.7027	3479.821	15.88588	-61.30614	1.493091
89.75665	3476.417	15.88209	-61.56305	1.519498
89.8106	3473.002	15.89697	-61.81436	1.549325
89.86455	3469.575	15.92117	-62.05985	1.582411
89.9185	3466.129	15.94383	-62.29936	1.618518
89.97244	3462.664	15.95526	-62.53275	1.657316
90.02639	3459.179	15.95004	-62.75996	1.698432
90.08035	3455.677	15.93142	-62.98094	1.741459
90.13429	3452.154	15.90595	-63.19574	1.78597
90.18824	3448.607	15.87901	-63.40441	1.831558
90.24219	3445.036	15.85159	-63.60705	1.87782
90.29614	3441.451	15.82611	-63.80374	1.924357
90.35009	3437.855	15.8044	-63.99463	1.970771
90.40404	3434.252	15.79244	-64.17984	2.016676
90.45798	3430.637	15.79478	-64.35951	2.061713
90.51193	3427.005	15.81113	-64.53381	2.105566
90.56589	3423.349	15.83215	-64.70289	2.14794
90.61983	3419.669	15.84706	-64.86694	2.18859
90.67378	3415.963	15.84397	-65.02614	2.227298
90.72773	3412.242	15.81404	-65.18063	2.263876
90.78168	3408.521	15.75048	-65.33056	2.298152
90.83563	3404.811	15.65113	-65.47608	2.330023
90.88958	3401.113	15.51649	-65.61731	2.359435
90.94353	3397.432	15.34888	-65.75439	2.386388
90.99747	3393.767	15.15197	-65.88746	2.410932
91.05143	3390.118	14.93145	-66.01665	2.433151
91.10538	3386.485	14.69372	-66.14213	2.453148
91.15932	3382.875	14.44496	-66.26407	2.471041
91.21327	3379.29	14.1898	-66.38267	2.486956
91.26722	3375.73	13.93165	-66.49812	2.50102
91.32117	3372.189	13.67439	-66.61062	2.513326
91.37512	3368.66	13.42052	-66.72043	2.523945
91.42907	3365.133	13.17049	-66.82778	2.532893
91.48302	3361.597	12.91954	-66.93289	2.540174
91.53697	3358.048	12.6686	-67.036	2.545774
91.59092	3354.489	12.42113	-67.13732	2.549648
91.64487	3350.925	12.18395	-67.23705	2.551766
91.69881	3347.365	11.9641	-67.33537	2.552118
91.75276	3343.812	11.76381	-67.43246	2.550683
91.80672	3340.268	11.58286	-67.52846	2.547446
91.86066	3336.728	11.42002	-67.6235	2.542415
91.91461	3333.185	11.27397	-67.71771	2.535613
91.96856	3329.642	11.14321	-67.81124	2.527058
92.02251	3326.101	11.02567	-67.90421	2.516784
92.07646	3322.561	10.92043	-67.99675	2.504844
92.13041	3319.013	10.8329	-68.08902	2.491316
92.18436	3315.445	10.76615	-68.18115	2.476288
92.2383	3311.846	10.71516	-68.27325	2.459873
92.29226	3308.214	10.6719	-68.36542	2.44222
92.34621	3304.553	10.63204	-68.45774	2.423486
92.40015	3300.877	10.59622	-68.55033	2.403804
92.4541	3297.2	10.56803	-68.66202	2.393687
92.50805	3293.531	10.55032	-68.77045	2.385681
92.562	3289.869	10.54679	-68.87605	2.379111
92.61595	3286.209	10.55894	-68.97949	2.373529
92.6699	3282.539	10.58159	-69.08138	2.368663
92.72385	3278.85	10.60813	-69.18225	2.364412
92.7778	3275.139	10.63861	-69.28251	2.360766
92.83175	3271.406	10.67418	-69.38245	2.357772
92.8857	3267.657	10.71421	-69.48232	2.355517
92.93964	3263.903	10.75956	-69.58227	2.354102
92.99359	3260.142	10.81123	-69.68243	2.353628
93.04755	3256.376	10.86591	-69.78288	2.354188
93.10149	3252.601	10.91663	-69.8837	2.35587
93.15544	3248.82	10.95862	-69.98492	2.358745
93.20939	3245.027	10.98919	-70.08659	2.36288
93.26334	3241.22	11.00971	-70.18871	2.368332
93.31729	3237.398	11.02638	-70.29131	2.375138
93.37124	3233.56	11.04542	-70.39438	2.383336
93.42519	3229.699	11.07001	-70.49793	2.392945
93.47913	3225.816	11.09794	-70.60194	2.403973
93.53309	3221.907	11.12495	-70.70639	2.416433
93.58704	3217.971	11.15006	-70.81127	2.430312
93.64098	3214.016	11.17542	-70.91656	2.445599
93.69493	3210.048	11.20483	-71.02222	2.462279
93.74888	3206.073	11.23751	-71.12824	2.480329
93.80283	3202.1	11.26998	-71.23458	2.499715
93.85678	3198.132	11.30255	-71.34119	2.520413
93.91073	3194.169	11.34115	-71.44807	2.542382
93.96468	3190.207	11.3887	-71.55515	2.565584
94.01863	3186.252	11.44607	-71.66239	2.589969
94.07258	3182.354	11.53561	-71.76977	2.615508
94.12653	3178.499	11.63123	-71.87724	2.642147
94.18047	3174.672	11.72998	-71.98476	2.669841
94.23442	3170.86	11.83129	-72.0923	2.698536
94.28838	3167.056	11.93518	-72.19981	2.728196
94.34232	3163.258	12.04093	-72.30727	2.758759
94.39627	3159.462	12.14849	-72.41465	2.790192
94.45022	3155.67	12.25816	-72.5219	2.822431
94.50417	3151.878	12.37001	-72.62901	2.855447
94.55812	3148.089	12.48366	-72.73593	2.889183
94.61207	3144.302	12.59921	-72.84265	2.923595
94.66602	3140.517	12.71652	-72.94914	2.95864
94.71996	3136.734	12.83554	-73.0554	2.994282
94.77392	3132.954	12.95646	-73.16138	3.030475
94.82787	3129.177	13.07937	-73.2671	3.067186
94.88181	3125.403	13.20419	-73.37252	3.104379
94.93576	3121.633	13.33073	-73.47765	3.142014
94.98971	3117.87	13.4589	-73.58247	3.18007
