T[Â°C]	330nm [counts / mm]	S.D.	First derivative	S.D. of first derivative
20.00119	3517.607		-51.37701	
20.05513	3514.749		-51.32179	
20.10908	3511.892		-51.26672	
20.16303	3509.036		-51.21182	
20.21698	3506.181		-51.15709	
20.27092	3503.327		-51.10251	
20.32487	3500.475		-51.04809	
20.37882	3497.623		-50.99382	
20.43277	3494.772		-50.93971	
20.48672	3491.921		-50.88575	
20.54066	3489.069		-50.83192	
20.59461	3486.215		-50.77821	
20.64856	3483.359		-50.72462	
20.70251	3480.5		-50.67114	
20.75645	3477.639		-50.61774	
20.8104	3474.778		-50.5644	
20.86435	3471.917		-50.51111	
20.9183	3469.063		-50.45784	
20.97224	3466.223		-50.40456	
21.02619	3463.45		-50.35124	
21.08014	3460.705		-50.29786	
21.13409	3457.994		-50.24435	
21.18803	3455.321		-50.19071	
21.24198	3452.679		-50.13688	
21.29593	3450.057		-50.08282	
21.34988	3447.445		-50.02849	
21.40383	3444.837		-49.97385	
21.45777	3442.232		-49.91886	
21.51172	3439.633		-49.86348	
21.56567	3437.046		-49.80767	
21.61962	3434.481		-49.75141	
21.67356	3431.949		-49.69466	
21.72751	3429.449		-49.63741	
21.78146	3426.974		-49.57964	
21.83541	3424.51		-49.52133	
21.88935	3422.041		-49.46248	
21.9433	3419.553		-49.4031	
21.99725	3417.037		-49.34318	
22.0512	3414.493		-49.28276	
22.10514	3411.914		-49.22187	
22.15909	3409.29		-49.16058	
22.21304	3406.618		-49.09896	
22.26699	3403.899		-49.03713	
22.32093	3401.139		-48.97527	
22.37488	3398.343		-48.91359	
22.42883	3395.52		-48.85242	
22.48278	3392.68		-48.7922	
22.53673	3389.834		-48.73348	
22.59067	3386.991		-48.67695	
22.64462	3384.16		-48.61988	
22.69857	3381.344		-48.56486	
22.75252	3378.543		-48.51193	
22.80646	3375.762		-48.46111	
22.86041	3373.005		-48.41233	
22.91436	3370.272		-48.36547	
22.96831	3367.557		-48.32037	
23.02225	3364.858		-48.27683	
23.0762	3362.175		-48.23465	
23.13015	3359.515		-48.19363	
23.1841	3356.878		-48.15359	
23.23804	3354.265		-48.11432	
23.29199	3351.679		-48.07561	
23.34594	3349.126		-48.03728	
23.39989	3346.611		-47.99911	
23.45383	3344.137		-47.9609	
23.50778	3341.706		-47.92246	
23.56173	3339.314		-47.88362	
23.61568	3336.947		-47.84424	
23.66963	3334.587		-47.80419	
23.72357	3332.213		-47.76337	
23.77752	3329.811		-47.7217	
23.83147	3327.367		-47.67908	
23.88542	3324.872		-47.63547	
23.93936	3322.323		-47.59087	
23.99331	3319.733		-47.54531	
24.04726	3317.118		-47.49886	
24.10121	3314.493		-47.45162	
24.15515	3311.872		-47.40369	
24.2091	3309.273		-47.35524	
24.26305	3306.71		-47.30643	
24.317	3304.184		-47.25752	
24.37094	3301.693		-47.20878	
24.42489	3299.229		-47.16054	
24.47884	3296.778		-47.11316	
24.53279	3294.326		-47.06702	
24.58673	3291.864		-47.02245	
24.64068	3289.387		-46.97977	
24.69463	3286.886		-46.93922	
24.74858	3284.355		-46.90104	
24.80253	3281.792		-46.8654	
24.85647	3279.198		-46.83243	
24.91042	3276.58		-46.8022	
24.96437	3273.953		-46.77473	
25.01832	3271.337		-46.75002	
25.07226	3268.751		-46.72801	
25.12621	3266.206		-46.70863	
25.18016	3263.71		-46.69179	
25.23411	3261.264		-46.67733	
25.28805	3258.856		-46.66508	
25.342	3256.458		-46.65482	
25.39595	3254.05		-46.64629	
25.4499	3251.617		-46.63919	
25.50385	3249.149		-46.63323	
25.55779	3246.639		-46.6281	
25.61174	3244.077		-46.62351	
25.66569	3241.466		-46.61919	
25.71964	3238.814		-46.61485	
25.77358	3236.143		-46.61024	
25.82753	3233.472		-46.6051	
25.88148	3230.815		-46.59921	
25.93543	3228.182		-46.59238	
25.98937	3225.584		-46.58443	
26.04332	3223.025		-46.57518	
26.09727	3220.504		-46.56445	
26.15122	3218.013		-46.55201	
26.20516	3215.546		-46.53763	
26.25911	3213.097		-46.52108	
26.31306	3210.661		-46.50219	
26.36701	3208.231		-46.48079	
26.42095	3205.798		-46.45684	
26.4749	3203.35		-46.43038	
26.52885	3200.88		-46.4015	
26.5828	3198.392		-46.37037	
26.63675	3195.899		-46.33717	
26.69069	3193.424		-46.3021	
26.74464	3190.978		-46.2654	
26.79859	3188.564		-46.22738	
26.85254	3186.175		-46.18835	
26.90648	3183.799		-46.14865	
26.96043	3181.419		-46.1086	
27.01438	3179.017		-46.0685	
27.06833	3176.583		-46.02865	
27.12227	3174.114		-45.98929	
27.17622	3171.617		-45.95065	
27.23017	3169.094		-45.9129	
27.28412	3166.535		-45.87619	
27.33806	3163.934		-45.84062	
27.39201	3161.295		-45.80626	
27.44596	3158.631		-45.77318	
27.49991	3155.964		-45.74145	
27.55385	3153.312		-45.71115	
27.6078	3150.686		-45.68238	
27.66175	3148.092		-45.65522	
27.7157	3145.528		-45.62982	
27.76965	3142.987		-45.60628	
27.82359	3140.464		-45.5847	
27.87754	3137.961		-45.56515	
27.93149	3135.483		-45.54763	
27.98544	3133.034		-45.5321	
28.03938	3130.617		-45.51842	
28.09333	3128.232		-45.50631	
28.14728	3125.873		-45.49542	
28.20123	3123.529		-45.48528	
28.25517	3121.19		-45.47539	
28.30912	3118.853		-45.46521	
28.36307	3116.523		-45.45421	
28.41702	3114.202		-45.44188	
28.47096	3111.89		-45.4278	
28.52491	3109.581		-45.41158	
28.57886	3107.268		-45.39291	
28.63281	3104.95		-45.37156	
28.68676	3102.624		-45.34737	
28.7407	3100.291		-45.32026	
28.79465	3097.951		-45.29025	
28.8486	3095.602		-45.25745	
28.90255	3093.24		-45.22206	
28.95649	3090.854		-45.18434	
29.01044	3088.426		-45.14458	
29.06439	3085.947		-45.1031	
29.11834	3083.423		-45.06028	
29.17228	3080.872		-45.01648	
29.22623	3078.321		-44.97209	
29.28018	3075.791		-44.92743	
29.33413	3073.29		-44.88279	
29.38807	3070.813		-44.83837	
29.44202	3068.354		-44.79438	
29.49597	3065.909		-44.75101	
29.54992	3063.471		-44.70844	
29.60386	3061.038		-44.6669	
29.65781	3058.61		-44.62666	
29.71176	3056.183		-44.58797	
29.76571	3053.748		-44.55109	
29.81966	3051.301		-44.51623	
29.8736	3048.839		-44.48353	
29.92755	3046.356		-44.45309	
29.9815	3043.852		-44.42498	
30.03545	3041.333		-44.39922	
30.08939	3038.804		-44.3758	
30.14334	3036.276		-44.3546	
30.19729	3033.754		-44.33546	
30.25124	3031.24		-44.31818	
30.30518	3028.737		-44.30243	
30.35913	3026.248		-44.28788	
30.41308	3023.778		-44.27412	
30.46703	3021.33		-44.26071	
30.52098	3018.905		-44.2472	
30.57492	3016.502		-44.23315	
30.62887	3014.124		-44.21814	
30.68282	3011.772		-44.2018	
30.73676	3009.453		-44.18384	
30.79071	3007.169		-44.16406	
30.84466	3004.919		-44.14236	
30.89861	3002.703		-44.11876	
30.95256	3000.513		-44.09336	
31.0065	2998.334		-44.06635	
31.06045	2996.155		-44.03798	
31.1144	2993.962		-44.00856	
31.16835	2991.749		-43.9785	
31.22229	2989.524		-43.94818	
31.27624	2987.293		-43.91796	
31.33019	2985.06		-43.88818	
31.38414	2982.824		-43.85907	
31.43808	2980.581		-43.83082	
31.49203	2978.327		-43.80358	
31.54598	2976.059		-43.77742	
31.59993	2973.77		-43.75243	
31.65388	2971.457		-43.72865	
31.70782	2969.107		-43.70614	
31.76177	2966.716		-43.6849	
31.81572	2964.286		-43.66489	
31.86967	2961.825		-43.64604	
31.92361	2959.342		-43.62827	
31.97756	2956.847		-43.61153	
32.03151	2954.346		-43.59578	
32.08546	2951.849		-43.58097	
32.1394	2949.362		-43.56709	
32.19335	2946.889		-43.55409	
32.2473	2944.427		-43.54189	
32.30125	2941.977		-43.53035	
32.35519	2939.542		-43.51928	
32.40914	2937.134		-43.50846	
32.46309	2934.754		-43.49763	
32.51704	2932.399		-43.48652	
32.57098	2930.057		-43.47483	
32.62493	2927.716		-43.46227	
32.67888	2925.373		-43.44851	
32.73283	2923.029		-43.4333	
32.78677	2920.686		-43.41639	
32.84072	2918.35		-43.39763	
32.89467	2916.03		-43.37692	
32.94862	2913.733		-43.35428	
33.00257	2911.462		-43.3298	
33.05651	2909.21		-43.30366	
33.11046	2906.965		-43.27609	
33.16441	2904.713		-43.24741	
33.21836	2902.443		-43.21797	
33.2723	2900.141		-43.18814	
33.32625	2897.797		-43.15829	
33.3802	2895.406		-43.12875	
33.43415	2892.969		-43.09981	
33.48809	2890.499		-43.0717	
33.54204	2888.013		-43.04461	
33.59599	2885.531		-43.01863	
33.64994	2883.063		-42.99383	
33.70388	2880.617		-42.97017	
33.75783	2878.194		-42.94758	
33.81178	2875.8		-42.92593	
33.86573	2873.44		-42.90503	
33.91967	2871.117		-42.88467	
33.97362	2868.827		-42.86464	
34.02757	2866.568		-42.8447	
34.08152	2864.332		-42.82464	
34.13547	2862.107		-42.80426	
34.18941	2859.881		-42.78337	
34.24336	2857.65		-42.76183	
34.29731	2855.411		-42.7395	
34.35126	2853.164		-42.71629	
34.4052	2850.915		-42.69213	
34.45915	2848.669		-42.66702	
34.5131	2846.437		-42.64095	
34.56705	2844.228		-42.61398	
34.62099	2842.053		-42.58611	
34.67494	2839.916		-42.5574	
34.72889	2837.813		-42.5279	
34.78284	2835.733		-42.49764	
34.83678	2833.658		-42.46668	
34.89073	2831.575		-42.43512	
34.94468	2829.47		-42.40308	
34.99863	2827.325		-42.37069	
35.05257	2825.124		-42.3381	
35.10652	2822.862		-42.30549	
35.16047	2820.543		-42.27305	
35.21442	2818.179		-42.24102	
35.26837	2815.777		-42.20971	
35.32232	2813.347		-42.17944	
35.37626	2810.901		-42.15056	
35.43021	2808.447		-42.12342	
35.48416	2805.992		-42.09835	
35.53811	2803.545		-42.0756	
35.59205	2801.11		-42.05533	
35.646	2798.692		-42.03761	
35.69995	2796.286		-42.02238	
35.75389	2793.887		-42.00946	
35.80784	2791.49		-41.99857	
35.86179	2789.091		-41.98929	
35.91574	2786.688		-41.98111	
35.96968	2784.282		-41.97348	
36.02363	2781.879		-41.96579	
36.07758	2779.483		-41.95746	
36.13153	2777.104		-41.94786	
36.18547	2774.753		-41.93643	
36.23943	2772.448		-41.92264	
36.29337	2770.206		-41.90605	
36.34732	2768.035		-41.8863	
36.40127	2765.932		-41.86312	
36.45522	2763.888		-41.83636	
36.50916	2761.885		-41.8059	
36.56311	2759.905		-41.77174	
36.61706	2757.924		-41.73394	
36.67101	2755.921		-41.69265	
36.72495	2753.877		-41.64809	
36.7789	2751.778		-41.60053	
36.83285	2749.625		-41.55027	
36.8868	2747.433		-41.49765	
36.94074	2745.216		-41.443	
36.99469	2742.98		-41.3867	
37.04864	2740.726		-41.32907	
37.10258	2738.459		-41.27045	
37.15653	2736.182		-41.21118	
37.21048	2733.892		-41.15162	
37.26443	2731.586		-41.09218	
37.31837	2729.268		-41.03334	
37.37233	2726.938		-40.97563	
37.42627	2724.597		-40.91962	
37.48022	2722.243		-40.86593	
37.53417	2719.875		-40.81512	
37.58812	2717.496		-40.76773	
37.64206	2715.116		-40.72421	
37.69601	2712.749		-40.68493	
37.74996	2710.405		-40.6502	
37.80391	2708.093		-40.62018	
37.85785	2705.816		-40.59494	
37.9118	2703.576		-40.57443	
37.96575	2701.377		-40.55853	
38.0197	2699.221		-40.54703	
38.07364	2697.106		-40.53961	
38.12759	2695.026		-40.53589	
38.18154	2692.975		-40.53538	
38.23549	2690.947		-40.53753	
38.28943	2688.928		-40.54175	
38.34338	2686.913		-40.5474	
38.39733	2684.895		-40.55386	
38.45127	2682.871		-40.56055	
38.50523	2680.838		-40.56689	
38.55917	2678.793		-40.57239	
38.61312	2676.733		-40.57659	
38.66707	2674.659		-40.57911	
38.72102	2672.569		-40.57965	
38.77496	2670.457		-40.57796	
38.82891	2668.321		-40.57388	
38.88286	2666.167		-40.56722	
38.93681	2664.003		-40.55789	
38.99075	2661.831		-40.54578	
39.0447	2659.657		-40.53085	
39.09865	2657.484		-40.51305	
39.1526	2655.312		-40.49236	
39.20654	2653.132		-40.46879	
39.26049	2650.942		-40.44237	
39.31444	2648.742		-40.4132	
39.36839	2646.537		-40.38144	
39.42233	2644.331		-40.3473	
39.47628	2642.128		-40.31107	
39.53023	2639.929		-40.27305	
39.58418	2637.736		-40.23357	
39.63813	2635.558		-40.193	
39.69207	2633.402		-40.15173	
39.74602	2631.265		-40.11015	
39.79997	2629.135		-40.0687	
39.85392	2626.993		-40.02779	
39.90786	2624.823		-39.98787	
39.96181	2622.61		-39.9493	
40.01576	2620.344		-39.91245	
40.06971	2618.019		-39.87763	
40.12365	2615.643		-39.84509	
40.1776	2613.238		-39.81497	
40.23155	2610.824		-39.78731	
40.2855	2608.415		-39.76203	
40.33944	2606.03		-39.73894	
40.39339	2603.68		-39.71776	
40.44734	2601.37		-39.69819	
40.50129	2599.096		-39.67992	
40.55523	2596.85		-39.66261	
40.60918	2594.623		-39.64596	
40.66313	2592.405		-39.6297	
40.71708	2590.198		-39.61358	
40.77103	2588.002		-39.59739	
40.82497	2585.82		-39.58092	
40.87892	2583.656		-39.56401	
40.93287	2581.507		-39.54649	
40.98682	2579.377		-39.52825	
41.04076	2577.273		-39.50916	
41.09471	2575.208		-39.48915	
41.14866	2573.196		-39.46815	
41.20261	2571.246		-39.44611	
41.25655	2569.359		-39.42294	
41.3105	2567.533		-39.39862	
41.36445	2565.757		-39.37307	
41.4184	2564.012		-39.3463	
41.47234	2562.276		-39.3183	
41.52629	2560.518		-39.28907	
41.58024	2558.712		-39.25862	
41.63419	2556.847		-39.227	
41.68813	2554.921		-39.19428	
41.74208	2552.942		-39.16057	
41.79603	2550.917		-39.12606	
41.84998	2548.858		-39.09102	
41.90393	2546.776		-39.05577	
41.95787	2544.679		-39.02071	
42.01182	2542.567		-38.98628	
42.06577	2540.431		-38.95293	
42.11972	2538.271		-38.92112	
42.17366	2536.087		-38.89128	
42.22761	2533.883		-38.86375	
42.28156	2531.663		-38.83878	
42.33551	2529.427		-38.8165	
42.38945	2527.178		-38.79691	
42.4434	2524.922		-38.7799	
42.49735	2522.663		-38.76532	
42.5513	2520.406		-38.75293	
42.60524	2518.145		-38.74246	
42.65919	2515.878		-38.73362	
42.71314	2513.611		-38.7261	
42.76709	2511.353		-38.7196	
42.82103	2509.124		-38.71379	
42.87498	2506.941		-38.70835	
42.92893	2504.81		-38.70293	
42.98288	2502.729		-38.69717	
43.03683	2500.684		-38.69074	
43.09077	2498.656		-38.68331	
43.14472	2496.626		-38.67459	
43.19867	2494.577		-38.66431	
43.25262	2492.496		-38.65227	
43.30656	2490.38		-38.63827	
43.36051	2488.237		-38.62213	
43.41446	2486.083		-38.6037	
43.46841	2483.935		-38.58282	
43.52235	2481.801		-38.55939	
43.5763	2479.686		-38.5333	
43.63025	2477.587		-38.50449	
43.6842	2475.502		-38.47295	
43.73814	2473.43		-38.4387	
43.79209	2471.373		-38.40181	
43.84604	2469.328		-38.36243	
43.89999	2467.292		-38.32076	
43.95393	2465.262		-38.27706	
44.00788	2463.229		-38.2317	
44.06183	2461.189		-38.18508	
44.11578	2459.139		-38.13765	
44.16973	2457.083		-38.08992	
44.22367	2455.026		-38.04238	
44.27762	2452.973		-37.99552	
44.33157	2450.929		-37.94977	
44.38552	2448.897		-37.90551	
44.43946	2446.88		-37.86305	
44.49341	2444.882		-37.82261	
44.54736	2442.903		-37.78434	
44.60131	2440.941		-37.74833	
44.65525	2438.99		-37.7146	
44.7092	2437.041		-37.68316	
44.76315	2435.085		-37.65395	
44.8171	2433.119		-37.62688	
44.87104	2431.141		-37.60183	
44.92499	2429.152		-37.57859	
44.97894	2427.158		-37.55698	
45.03289	2425.165		-37.53677	
45.08683	2423.177		-37.51772	
45.14078	2421.199		-37.49961	
45.19473	2419.229		-37.48225	
45.24868	2417.261		-37.46549	
45.30263	2415.286		-37.44919	
45.35658	2413.298		-37.43325	
45.41052	2411.296		-37.4176	
45.46447	2409.283		-37.40212	
45.51842	2407.27		-37.3867	
45.57236	2405.258		-37.37122	
45.62631	2403.247		-37.35553	
45.68026	2401.236		-37.33951	
45.73421	2399.223		-37.32302	
45.78815	2397.208		-37.30596	
45.8421	2395.19		-37.28817	
45.89605	2393.17		-37.26952	
45.95	2391.147		-37.24989	
46.00394	2389.12		-37.22916	
46.05789	2387.087		-37.20724	
46.11184	2385.046		-37.18404	
46.16579	2382.993		-37.15952	
46.21973	2380.931		-37.13367	
46.27368	2378.865		-37.10652	
46.32763	2376.801		-37.07813	
46.38158	2374.745		-37.0486	
46.43553	2372.701		-37.01805	
46.48948	2370.667		-36.9866	
46.54342	2368.635		-36.95438	
46.59737	2366.596		-36.92153	
46.65132	2364.546		-36.88817	
46.70527	2362.483		-36.85441	
46.75921	2360.412		-36.82033	
46.81316	2358.34		-36.78594	
46.86711	2356.273		-36.75123	
46.92105	2354.213		-36.7161	
46.975	2352.163		-36.68042	
47.02895	2350.126		-36.64404	
47.0829	2348.102		-36.6068	
47.13684	2346.092		-36.56855	
47.19079	2344.096		-36.5292	
47.24474	2342.115		-36.48866	
47.29869	2340.146		-36.44694	
47.35263	2338.183		-36.40411	
47.40658	2336.219		-36.36029	
47.46053	2334.253		-36.31565	
47.51448	2332.291		-36.27042	
47.56843	2330.335		-36.22482	
47.62238	2328.393		-36.17909	
47.67632	2326.464		-36.1335	
47.73027	2324.55		-36.08829	
47.78422	2322.653		-36.04374	
47.83817	2320.772		-36.00004	
47.89211	2318.906		-35.95739	
47.94606	2317.05		-35.91591	
48.00001	2315.201		-35.87571	
48.05396	2313.358		-35.83681	
48.1079	2311.52		-35.79925	
48.16185	2309.682		-35.763	
48.2158	2307.838		-35.72802	
48.26974	2305.979		-35.69431	
48.32369	2304.097		-35.66182	
48.37764	2302.199		-35.63056	
48.43159	2300.296		-35.60053	
48.48553	2298.399		-35.57177	
48.53948	2296.515		-35.54434	
48.59343	2294.639		-35.51831	
48.64738	2292.767		-35.49377	
48.70133	2290.895		-35.4708	
48.75528	2289.019		-35.44949	
48.80922	2287.137		-35.42988	
48.86317	2285.244		-35.41202	
48.91712	2283.337		-35.39587	
48.97107	2281.417		-35.38137	
49.02501	2279.485		-35.36837	
49.07896	2277.544		-35.35669	
49.13291	2275.594		-35.34612	
49.18686	2273.638		-35.33639	
49.2408	2271.682		-35.32723	
49.29475	2269.735		-35.31838	
49.3487	2267.801		-35.30962	
49.40265	2265.886		-35.30075	
49.45659	2263.997		-35.29165	
49.51054	2262.136		-35.28225	
49.56449	2260.301		-35.27255	
49.61843	2258.479		-35.26261	
49.67239	2256.661		-35.25252	
49.72633	2254.837		-35.24239	
49.78028	2253.002		-35.23237	
49.83423	2251.15		-35.22257	
49.88818	2249.277		-35.21309	
49.94212	2247.374		-35.20398	
49.99607	2245.439		-35.19523	
50.05002	2243.476		-35.18682	
50.10397	2241.49		-35.17867	
50.15791	2239.492		-35.17064	
50.21186	2237.486		-35.16259	
50.26581	2235.475		-35.15438	
50.31976	2233.46		-35.1458	
50.3737	2231.448		-35.13668	
50.42765	2229.447		-35.12684	
50.4816	2227.467		-35.1161	
50.53555	2225.511		-35.10436	
50.58949	2223.579		-35.09151	
50.64344	2221.665		-35.07749	
50.69739	2219.759		-35.06228	
50.75134	2217.853		-35.04588	
50.80529	2215.937		-35.02834	
50.85923	2214.011		-35.00977	
50.91318	2212.082		-34.99031	
50.96713	2210.158		-34.97013	
51.02108	2208.25		-34.94941	
51.07502	2206.366		-34.92828	
51.12897	2204.515		-34.90686	
51.18292	2202.702		-34.88521	
51.23687	2200.928		-34.86341	
51.29081	2199.184		-34.8415	
51.34476	2197.459		-34.81955	
51.39871	2195.74		-34.79762	
51.45266	2194.016		-34.77583	
51.5066	2192.277		-34.7543	
51.56055	2190.515		-34.73319	
51.6145	2188.722		-34.71267	
51.66845	2186.896		-34.69296	
51.72239	2185.04		-34.67424	
51.77634	2183.16		-34.65676	
51.83029	2181.26		-34.64072	
51.88424	2179.343		-34.62634	
51.93819	2177.407		-34.6138	
51.99213	2175.454		-34.60328	
52.04608	2173.484		-34.59488	
52.10003	2171.504		-34.58865	
52.15398	2169.524		-34.58461	
52.20792	2167.553		-34.58271	
52.26187	2165.598		-34.58284	
52.31582	2163.66		-34.58487	
52.36977	2161.739		-34.58856	
52.42371	2159.838		-34.59365	
52.47766	2157.961		-34.59981	
52.53161	2156.114		-34.6067	
52.58556	2154.303		-34.61395	
52.6395	2152.53		-34.62118	
52.69345	2150.79		-34.628	
52.7474	2149.072		-34.63401	
52.80135	2147.359		-34.63885	
52.85529	2145.641		-34.64224	
52.90924	2143.91		-34.64392	
52.96319	2142.16		-34.64375	
53.01714	2140.383		-34.64163	
53.07109	2138.574		-34.63747	
53.12503	2136.735		-34.63123	
53.17898	2134.869		-34.62285	
53.23293	2132.989		-34.61233	
53.28688	2131.109		-34.59966	
53.34082	2129.236		-34.58487	
53.39477	2127.367		-34.56804	
53.44872	2125.502		-34.54924	
53.50267	2123.636		-34.52858	
53.55661	2121.764		-34.50618	
53.61056	2119.879		-34.48215	
53.66451	2117.973		-34.45664	
53.71846	2116.042		-34.42976	
53.7724	2114.089		-34.40166	
53.82635	2112.116		-34.37248	
53.8803	2110.128		-34.34234	
53.93425	2108.129		-34.3114	
53.98819	2106.121		-34.27977	
54.04214	2104.109		-34.2476	
54.09609	2102.097		-34.215	
54.15004	2100.094		-34.18209	
54.20399	2098.104		-34.14899	
54.25793	2096.129		-34.11581	
54.31188	2094.177		-34.08263	
54.36583	2092.252		-34.0495	
54.41978	2090.359		-34.01645	
54.47372	2088.5		-33.98343	
54.52767	2086.674		-33.95036	
54.58162	2084.877		-33.91714	
54.63557	2083.103		-33.88363	
54.68951	2081.338		-33.84969	
54.74346	2079.57		-33.81515	
54.79741	2077.791		-33.77985	
54.85136	2075.998		-33.74364	
54.9053	2074.195		-33.70642	
54.95925	2072.385		-33.66813	
55.0132	2070.573		-33.62873	
55.06715	2068.768		-33.58825	
55.12109	2066.978		-33.54672	
55.17504	2065.205		-33.50419	
55.22899	2063.46		-33.46073	
55.28294	2061.749		-33.41641	
55.33689	2060.075		-33.37138	
55.39083	2058.426		-33.3258	
55.44478	2056.788		-33.27988	
55.49873	2055.145		-33.23386	
55.55268	2053.48		-33.18794	
55.60662	2051.782		-33.14234	
55.66057	2050.048		-33.09727	
55.71452	2048.281		-33.05292	
55.76847	2046.487		-33.00946	
55.82241	2044.671		-32.96704	
55.87636	2042.839		-32.92576	
55.93031	2041.001		-32.88567	
55.98426	2039.164		-32.84681	
56.0382	2037.335		-32.8092	
56.09215	2035.524		-32.77282	
56.1461	2033.734		-32.73771	
56.20005	2031.969		-32.70389	
56.25399	2030.226		-32.6714	
56.30794	2028.498		-32.64025	
56.36189	2026.781		-32.61044	
56.41584	2025.064		-32.58188	
56.46979	2023.341		-32.55447	
56.52374	2021.612		-32.52805	
56.57768	2019.88		-32.50243	
56.63163	2018.146		-32.47746	
56.68558	2016.411		-32.45295	
56.73952	2014.676		-32.42874	
56.79347	2012.941		-32.40465	
56.84742	2011.204		-32.38053	
56.90137	2009.464		-32.35625	
56.95531	2007.717		-32.33169	
57.00926	2005.959		-32.30674	
57.06321	2004.19		-32.28128	
57.11716	2002.407		-32.25521	
57.1711	2000.609		-32.22839	
57.22505	1998.795		-32.20066	
57.279	1996.973		-32.17185	
57.33295	1995.152		-32.14181	
57.38689	1993.339		-32.1104	
57.44084	1991.538		-32.07752	
57.49479	1989.748		-32.04309	
57.54874	1987.966		-32.00707	
57.60269	1986.191		-31.96945	
57.65664	1984.42		-31.93023	
57.71058	1982.655		-31.88948	
57.76453	1980.9		-31.8473	
57.81848	1979.157		-31.8038	
57.87243	1977.426		-31.75914	
57.92637	1975.703		-31.71345	
57.98032	1973.984		-31.66688	
58.03427	1972.269		-31.6196	
58.08821	1970.561		-31.57182	
58.14216	1968.864		-31.52376	
58.19611	1967.183		-31.4757	
58.25006	1965.52		-31.42795	
58.304	1963.877		-31.3808	
58.35795	1962.25		-31.33457	
58.4119	1960.634		-31.2895	
58.46585	1959.024		-31.24584	
58.51979	1957.415		-31.20381	
58.57374	1955.804		-31.1636	
58.62769	1954.185		-31.12538	
58.68164	1952.548		-31.08931	
58.73559	1950.881		-31.0555	
58.78954	1949.175		-31.02406	
58.84348	1947.428		-30.99503	
58.89743	1945.65		-30.96847	
58.95138	1943.863		-30.94437	
59.00533	1942.092		-30.9227	
59.05927	1940.353		-30.90337	
59.11322	1938.654		-30.88625	
59.16717	1936.993		-30.87114	
59.22112	1935.366		-30.85776	
59.27506	1933.768		-30.84576	
59.32901	1932.197		-30.83476	
59.38296	1930.644		-30.82432	
59.4369	1929.099		-30.81399	
59.49085	1927.551		-30.8033	
59.5448	1925.992		-30.79181	
59.59875	1924.41		-30.77906	
59.65269	1922.801		-30.76467	
59.70664	1921.169		-30.74828	
59.76059	1919.529		-30.7296	
59.81454	1917.901		-30.70842	
59.86849	1916.295		-30.68458	
59.92244	1914.718		-30.65797	
59.97638	1913.164		-30.62852	
60.03033	1911.626		-30.59621	
60.08428	1910.101		-30.56104	
60.13823	1908.581		-30.52302	
60.19217	1907.06		-30.48225	
60.24612	1905.525		-30.43884	
60.30007	1903.963		-30.39292	
60.35402	1902.363		-30.34462	
60.40796	1900.718		-30.29409	
60.46191	1899.024		-30.24151	
60.51586	1897.285		-30.18704	
60.56981	1895.512		-30.13087	
60.62375	1893.72		-30.0732	
60.6777	1891.922		-30.01421	
60.73165	1890.127		-29.95406	
60.78559	1888.335		-29.89292	
60.83954	1886.541		-29.83091	
60.89349	1884.741		-29.7681	
60.94744	1882.936		-29.70453	
61.00139	1881.126		-29.64019	
61.05534	1879.311		-29.57501	
61.10928	1877.492		-29.50888	
61.16323	1875.674		-29.44162	
61.21718	1873.864		-29.37297	
61.27113	1872.074		-29.30264	
61.32507	1870.311		-29.2303	
61.37902	1868.581		-29.15556	
61.43297	1866.891		-29.07808	
61.48692	1865.244		-28.99749	
61.54086	1863.642		-28.91339	
61.59481	1862.089		-28.82541	
61.64876	1860.582		-28.73314	
61.70271	1859.115		-28.6362	
61.75665	1857.684		-28.53427	
61.8106	1856.282		-28.42705	
61.86455	1854.905		-28.31431	
61.9185	1853.548		-28.19586	
61.97245	1852.203		-28.07156	
62.02639	1850.865		-27.94133	
62.08034	1849.532		-27.80511	
62.13429	1848.202		-27.66287	
62.18824	1846.869		-27.51463	
62.24218	1845.524		-27.36047	
62.29613	1844.161		-27.20049	
62.35008	1842.777		-27.03483	
62.40403	1841.368		-26.86364	
62.45797	1839.935		-26.68707	
62.51192	1838.48		-26.50526	
62.56587	1837.008		-26.31835	
62.61982	1835.529		-26.12643	
62.67376	1834.046		-25.92958	
62.72771	1832.558		-25.72782	
62.78166	1831.065		-25.52114	
62.83561	1829.565		-25.30944	
62.88955	1828.065		-25.0926	
62.9435	1826.57		-24.87041	
62.99745	1825.08		-24.64263	
63.0514	1823.597		-24.40894	
63.10535	1822.125		-24.16895	
63.15929	1820.671		-23.92225	
63.21324	1819.244		-23.66832	
63.26719	1817.846		-23.40658	
63.32114	1816.48		-23.13642	
63.37508	1815.147		-22.85722	
63.42903	1813.847		-22.56834	
63.48298	1812.58		-22.26915	
63.53693	1811.342		-21.959	
63.59087	1810.128		-21.6372	
63.64482	1808.932		-21.30309	
63.69877	1807.746		-20.95597	
63.75272	1806.563		-20.59519	
63.80666	1805.38		-20.22007	
63.86061	1804.193		-19.82998	
63.91456	1803.003		-19.42426	
63.96851	1801.808		-19.00228	
64.02245	1800.614		-18.56339	
64.0764	1799.428		-18.10698	
64.13035	1798.26		-17.6324	
64.1843	1797.116		-17.13906	
64.23824	1796.003		-16.62633	
64.29219	1794.922		-16.09361	
64.34614	1793.872		-15.54031	
64.40009	1792.85		-14.96583	
64.45403	1791.847		-14.36953	
64.50798	1790.852		-13.75084	
64.56193	1789.862		-13.10909	
64.61588	1788.881		-12.4436	
64.66982	1787.921		-11.75367	
64.72377	1786.992		-11.03855	
64.77773	1786.104		-10.29735	
64.83167	1785.267		-9.529405	
64.88562	1784.486		-8.733738	
64.93957	1783.763		-7.909409	
64.99352	1783.095		-7.055444	
65.04746	1782.481		-6.170833	
65.10141	1781.923		-5.254549	
65.15536	1781.425		-4.305546	
65.2093	1780.99		-3.322745	
65.26325	1780.619		-2.305027	
65.3172	1780.305		-1.251241	
65.37115	1780.046		-0.1602263	
65.42509	1779.839		0.969181	
65.47904	1779.682		2.138147	
65.53299	1779.573		3.34784	
65.58694	1779.508		4.599414	
65.64088	1779.489		5.893986	
65.69483	1779.515		7.232612	
65.74878	1779.592		8.616375	
65.80273	1779.728		10.04626	
65.85667	1779.926		11.52323	
65.91062	1780.189		13.04823	
65.96457	1780.511		14.62215	
66.01852	1780.888		16.24587	
66.07246	1781.322		17.92027	
66.12641	1781.822		19.64618	
66.18036	1782.393		21.42447	
66.23431	1783.038		23.25602	
66.28825	1783.757		25.14172	
66.3422	1784.551		27.08245	
66.39615	1785.422		29.07912	
66.4501	1786.373		31.13265	
66.50404	1787.411		33.24393	
66.55799	1788.544		35.41388	
66.61194	1789.778		37.64341	
66.66589	1791.126		39.93354	
66.71983	1792.595		42.28507	
66.77378	1794.197		44.69904	
66.82773	1795.941		47.17643	
66.88168	1797.832		49.71824	
66.93562	1799.879		52.32549	
66.98957	1802.088		54.99915	
67.04353	1804.454		57.74065	
67.09747	1806.974		60.55016	
67.15142	1809.645		63.42899	
67.20537	1812.469		66.37802	
67.25932	1815.442		69.39806	
67.31326	1818.563		72.48991	
67.36721	1821.842		75.6542	
67.42116	1825.29		78.8917	
67.47511	1828.917		82.20289	
67.52905	1832.731		85.5882	
67.583	1836.738		89.04797	
67.63695	1840.935		92.58238	
67.6909	1845.32		96.19149	
67.74484	1849.893		99.87524	
67.79879	1854.656		103.6335	
67.85274	1859.62		107.4659	
67.90668	1864.79		111.3723	
67.96063	1870.166		115.3519	
68.01458	1875.747		119.4044	
68.06853	1881.541		123.529	
68.12247	1887.553		127.725	
68.17642	1893.79		131.9916	
68.23037	1900.259		136.3277	
68.28432	1906.969		140.7325	
68.33826	1913.926		145.2046	
68.39221	1921.134		149.7431	
68.44616	1928.596		154.3466	
68.50011	1936.316		159.014	
68.55405	1944.29		163.7438	
68.608	1952.52		168.5349	
68.66195	1961.013		173.386	
68.7159	1969.779		178.2956	
68.76984	1978.828		183.2627	
68.82379	1988.166		188.2859	
68.87774	1997.796		193.3639	
68.93169	2007.725		198.4954	
68.98563	2017.954		203.6789	
69.03958	2028.48		208.9128	
69.09353	2039.306		214.1952	
69.14748	2050.442		219.5241	
69.20142	2061.896		224.8972	
69.25538	2073.67		230.3126	
69.30933	2085.767		235.7658	
69.36327	2098.19		241.2543	
69.41722	2110.945		246.7743	
69.47117	2124.032		252.3217	
69.52512	2137.456		257.8921	
69.57906	2151.228		263.4804	
69.63301	2165.357		269.0811	
69.68696	2179.844		274.6882	
69.74091	2194.682		280.2952	
69.79485	2209.866		285.895	
69.8488	2225.387		291.4797	
69.90275	2241.239		297.0414	
69.9567	2257.414		302.571	
70.01064	2273.914		308.0593	
70.06459	2290.737		313.4965	
70.11854	2307.883		318.8721	
70.17249	2325.354		324.1754	
70.22643	2343.148		329.3951	
70.28038	2361.268		334.5193	
70.33433	2379.718		339.5363	
70.38828	2398.508		344.4335	
70.44222	2417.65		349.1986	
70.49617	2437.146		353.8192	
70.55012	2456.991		358.2826	
70.60406	2477.175		362.5765	
70.65801	2497.688		366.6888	
70.71196	2518.524		370.6075	
70.76591	2539.675		374.3212	
70.81985	2561.131		377.8188	
70.8738	2582.883		381.09	
70.92775	2604.935		384.1248	
70.9817	2627.3		386.9141	
71.03564	2649.996		389.4492	
71.08959	2673.042		391.7224	
71.14354	2696.449		393.7263	
71.19749	2720.224		395.4551	
71.25143	2744.373		396.903	
71.30538	2768.901		398.0653	
71.35933	2793.805		398.9382	
71.41328	2819.07		399.5187	
71.46722	2844.658		399.8048	
71.52118	2870.526		399.7952	
71.57513	2896.614		399.4897	
71.62907	2922.869		398.8887	
71.68302	2949.24		397.9935	
71.73697	2975.685		396.806	
71.79092	3002.162		395.3288	
71.84486	3028.635		393.5656	
71.89881	3055.073		391.5195	
71.95276	3081.454		389.1953	
72.00671	3107.751		386.598	
72.06065	3133.941		383.7329	
72.1146	3159.991		380.606	
72.16855	3185.851		377.2234	
72.2225	3211.459		373.5919	
72.27644	3236.743		369.7182	
72.33039	3261.625		365.6096	
72.38434	3286.031		361.2737	
72.43829	3309.889		356.7184	
72.49223	3333.134		351.9518	
72.54618	3355.712		346.9825	
72.60013	3377.591		341.8192	
72.65408	3398.756		336.4711	
72.70802	3419.204		330.9476	
72.76197	3438.936		325.2585	
72.81592	3457.96		319.4139	
72.86987	3476.287		313.4241	
72.92381	3493.93		307.2997	
72.97776	3510.904		301.0518	
73.03171	3527.223		294.6917	
73.08566	3542.895		288.2311	
73.1396	3557.912		281.6818	
73.19355	3572.263		275.0562	
73.2475	3585.938		268.3667	
73.30145	3598.936		261.6261	
73.35539	3611.269		254.8474	
73.40934	3622.96		248.0437	
73.46329	3634.036		241.2281	
73.51723	3644.533		234.414	
73.57118	3654.491		227.6146	
73.62513	3663.949		220.8429	
73.67908	3672.955		214.1118	
73.73303	3681.557		207.4329	
73.78698	3689.792		200.8204	
73.84093	3697.694		194.2853	
73.89487	3705.292		187.8389	
73.94882	3712.604		181.4921	
74.00277	3719.652		175.2553	
74.05672	3726.454		169.1382	
74.11066	3733.021		163.1493	
74.16461	3739.352		157.2974	
74.21856	3745.44		151.5895	
74.27251	3751.282		146.032	
74.32645	3756.879		140.6304	
74.3804	3762.237		135.3893	
74.43435	3767.37		130.3124	
74.4883	3772.302		125.4022	
74.54224	3777.056		120.6605	
74.59619	3781.654		116.0883	
74.65014	3786.116		111.6854	
74.70409	3790.456		107.4509	
74.75803	3794.676		103.3832	
74.81198	3798.765		99.4799	
74.86593	3802.716		95.73787	
74.91988	3806.517		92.15346	
74.97382	3810.17		88.72247	
75.02777	3813.679		85.44026	
75.08172	3817.061		82.3019	
75.13567	3820.328		79.30215	
75.18961	3823.484		76.43562	
75.24356	3826.535		73.69678	
75.29751	3829.487		71.08006	
75.35146	3832.347		68.57993	
75.4054	3835.121		66.19086	
75.45935	3837.811		63.90747	
75.5133	3840.431		61.72443	
75.56725	3842.997		59.63656	
75.62119	3845.518		57.63892	
75.67514	3847.999		55.72656	
75.72909	3850.433		53.89501	
75.78304	3852.813		52.13994	
75.83698	3855.131		50.45727	
75.89093	3857.383		48.84316	
75.94488	3859.573		47.29398	
75.99883	3861.708		45.80612	
76.05278	3863.804		44.37681	
76.10673	3865.869		43.00283	
76.16068	3867.911		41.68135	
76.21462	3869.934		40.40974	
76.26857	3871.945		39.18543	
76.32252	3873.943		38.00598	
76.37646	3875.923		36.86907	
76.43041	3877.879		35.77231	
76.48436	3879.799		34.71328	
76.53831	3881.662		33.68954	
76.59225	3883.452		32.69859	
76.6462	3885.169		31.73793	
76.70015	3886.818		30.80506	
76.7541	3888.402		29.89753	
76.80804	3889.921		29.01294	
76.86199	3891.377		28.14897	
76.91594	3892.773		27.3034	
76.96989	3894.107		26.47412	
77.02383	3895.378		25.6592	
77.07778	3896.587		24.85687	
77.13173	3897.734		24.06554	
77.18568	3898.818		23.28386	
77.23962	3899.833		22.51066	
77.29357	3900.778		21.74499	
77.34752	3901.651		20.98609	
77.40147	3902.447		20.23341	
77.45541	3903.162		19.48658	
77.50936	3903.796		18.74542	
77.56331	3904.355		18.00996	
77.61726	3904.861		17.28042	
77.6712	3905.338		16.55724	
77.72515	3905.813		15.84104	
77.7791	3906.308		15.13267	
77.83305	3906.839		14.43313	
77.88699	3907.419		13.74359	
77.94094	3908.063		13.06529	
77.99489	3908.777		12.39955	
78.04884	3909.558		11.74768	
78.10278	3910.393		11.11101	
78.15673	3911.261		10.49084	
78.21069	3912.137		9.888425	
78.26463	3912.998		9.305169	
78.31858	3913.836		8.742134	
78.37253	3914.643		8.200302	
78.42648	3915.414		7.68047	
78.48042	3916.141		7.183217	
78.53437	3916.815		6.708903	
78.58832	3917.431		6.257658	
78.64227	3917.99		5.829475	
78.69621	3918.492		5.424121	
78.75016	3918.934		5.041214	
78.80411	3919.316		4.680209	
78.85806	3919.629		4.340451	
78.912	3919.864		4.021214	
78.96595	3920.005		3.72174	
79.0199	3920.031		3.441266	
79.07384	3919.921		3.179048	
79.12779	3919.663		2.934378	
79.18174	3919.254		2.706609	
79.23569	3918.705		2.495175	
79.28963	3918.036		2.299609	
79.34358	3917.279		2.119545	
79.39753	3916.475		1.954707	
79.45148	3915.66		1.80492	
79.50542	3914.872		1.670113	
79.55937	3914.144		1.550316	
79.61332	3913.502		1.445653	
79.66727	3912.959		1.356354	
79.72121	3912.514		1.282738	
79.77516	3912.154		1.225201	
79.82911	3911.858		1.1842	
79.88306	3911.602		1.160241	
79.937	3911.359		1.153849	
79.99095	3911.122		1.165518	
80.0449	3910.894		1.195679	
80.09885	3910.689		1.244692	
80.15279	3910.518		1.312734	
80.20674	3910.394		1.399958	
80.26069	3910.334		1.506362	
80.31464	3910.353		1.631797	
80.36858	3910.464		1.775916	
80.42253	3910.684		1.938163	
80.47649	3911.01		2.117791	
80.53043	3911.422		2.313787	
80.58438	3911.879		2.525018	
80.63833	3912.334		2.750136	
80.69228	3912.751		2.987593	
80.74622	3913.104		3.235638	
80.80017	3913.383		3.492305	
80.85412	3913.587		3.755478	
80.90807	3913.724		4.022903	
80.96201	3913.818		4.292256	
81.01596	3913.896		4.561131	
81.06991	3913.984		4.827061	
81.12386	3914.105		5.087523	
81.1778	3914.276		5.339974	
81.23175	3914.509		5.581896	
81.2857	3914.808		5.810855	
81.33965	3915.167		6.024579	
81.39359	3915.567		6.22101	
81.44754	3915.993		6.398354	
81.50149	3916.438		6.555113	
81.55544	3916.894		6.690108	
81.60938	3917.354		6.802481	
81.66333	3917.809		6.891672	
81.71728	3918.268		6.957381	
81.77122	3918.75		6.999528	
81.82517	3919.273		7.018213	
81.87912	3919.854		7.013688	
81.93307	3920.508		6.986316	
81.98701	3921.245		6.936535	
82.04096	3922.068		6.864819	
82.09491	3922.968		6.771651	
82.14886	3923.93		6.657505	
82.2028	3924.934		6.522848	
82.25675	3925.953		6.368119	
82.3107	3926.959		6.193716	
82.36465	3927.93		5.999941	
82.41859	3928.854		5.787105	
82.47254	3929.724		5.555351	
82.52649	3930.528		5.304778	
82.58044	3931.258		5.0354	
82.63438	3931.91		4.747162	
82.68834	3932.489		4.439867	
82.74229	3933.012		4.113356	
82.79623	3933.502		3.76723	
82.85018	3933.972		3.401059	
82.90413	3934.425		3.014332	
82.95808	3934.852		2.606498	
83.01202	3935.237		2.176975	
83.06597	3935.572		1.725199	
83.11992	3935.85		1.250519	
83.17387	3936.067		0.7523386	
83.22781	3936.212		0.230039	
83.28176	3936.278		-0.3169407	
83.33571	3936.252		-0.8890548	
83.38966	3936.133		-1.486594	
83.4436	3935.935		-2.109665	
83.49755	3935.678		-2.758169	
83.5515	3935.385		-3.431782	
83.60545	3935.063		-4.129941	
83.65939	3934.715		-4.851857	
83.71334	3934.333		-5.596543	
83.76729	3933.912		-6.362856	
83.82124	3933.438		-7.14951	
83.87518	3932.915		-7.955111	
83.92913	3932.352		-8.778193	
83.98308	3931.762		-9.61725	
84.03703	3931.159		-10.47076	
84.09097	3930.552		-11.33717	
84.14492	3929.95		-12.21493	
84.19887	3929.364		-13.10254	
84.25282	3928.798		-13.9986	
84.30676	3928.25		-14.9018	
84.36071	3927.711		-15.81097	
84.41466	3927.173		-16.72503	
84.46861	3926.632		-17.64299	
84.52255	3926.074		-18.56397	
84.5765	3925.489		-19.48718	
84.63045	3924.855		-20.41193	
84.68439	3924.158		-21.33761	
84.73834	3923.385		-22.26372	
84.79229	3922.53		-23.18983	
84.84624	3921.592		-24.11562	
84.90018	3920.564		-25.04087	
84.95414	3919.434		-25.96562	
85.00809	3918.203		-26.88962	
85.06203	3916.882		-27.81309	
85.11598	3915.478		-28.73622	
85.16993	3913.995		-29.65927	
85.22388	3912.43		-30.58253	
85.27782	3910.764		-31.50631	
85.33177	3908.977		-32.43087	
85.38572	3907.053		-33.35638	
85.43967	3904.989		-34.2829	
85.49361	3902.788		-35.21034	
85.54756	3900.466		-36.13852	
85.60151	3898.047		-37.06712	
85.65546	3895.56		-37.99575	
85.7094	3893.028		-38.92389	
85.76335	3890.472		-39.85096	
85.8173	3887.912		-40.77624	
85.87125	3885.372		-41.69893	
85.92519	3882.867		-42.6181	
85.97914	3880.399		-43.53271	
86.03309	3877.959		-44.44157	
86.08704	3875.534		-45.34336	
86.14098	3873.109		-46.23667	
86.19493	3870.669		-47.12003	
86.24888	3868.194		-47.992	
86.30283	3865.663		-48.85117	
86.35677	3863.053		-49.69626	
86.41072	3860.353		-50.52607	
86.46467	3857.553		-51.33957	
86.51862	3854.655		-52.13586	
86.57256	3851.666		-52.91417	
86.62651	3848.607		-53.67391	
86.68046	3845.499		-54.41464	
86.73441	3842.363		-55.13606	
86.78835	3839.206		-55.83802	
86.8423	3836.029		-56.52048	
86.89625	3832.819		-57.18355	
86.9502	3829.568		-57.82745	
87.00414	3826.273		-58.45253	
87.05809	3822.933		-59.05925	
87.11204	3819.548		-59.64822	
87.16599	3816.124		-60.22022	
87.21994	3812.657		-60.77588	
87.27389	3809.151		-61.31617	
87.32784	3805.618		-61.84201	
87.38178	3802.072		-62.35437	
87.43573	3798.518		-62.85426	
87.48968	3794.952		-63.34264	
87.54362	3791.361		-63.82053	
87.59757	3787.731		-64.28885	
87.65152	3784.046		-64.74854	
87.70547	3780.295		-65.20044	
87.75941	3776.479		-65.64531	
87.81336	3772.611		-66.08381	
87.86731	3768.71		-66.51644	
87.92126	3764.796		-66.9436	
87.9752	3760.885		-67.36551	
88.02915	3756.992		-67.78221	
88.0831	3753.127		-68.1936	
88.13705	3749.294		-68.59941	
88.19099	3745.488		-68.99928	
88.24494	3741.699		-69.3927	
88.29889	3737.906		-69.77912	
88.35284	3734.089		-70.15791	
88.40678	3730.237		-70.52843	
88.46073	3726.347		-70.89	
88.51468	3722.434		-71.24195	
88.56863	3718.518		-71.58367	
88.62257	3714.625		-71.91458	
88.67652	3710.776		-72.23421	
88.73047	3706.981		-72.54221	
88.78442	3703.246		-72.83835	
88.83836	3699.57		-73.12251	
88.89231	3695.939		-73.39468	
88.94626	3692.339		-73.65494	
89.00021	3688.748		-73.90344	
89.05415	3685.146		-74.1404	
89.1081	3681.511		-74.36608	
89.16205	3677.813		-74.58081	
89.216	3674.025		-74.7849	
89.26994	3670.13		-74.97872	
89.32389	3666.119		-75.16265	
89.37784	3661.993		-75.33717	
89.43179	3657.768		-75.5029	
89.48574	3653.471		-75.66047	
89.53969	3649.131		-75.81071	
89.59364	3644.778		-75.95451	
89.64758	3640.43		-76.09274	
89.70153	3636.098		-76.22635	
89.75548	3631.78		-76.35622	
89.80943	3627.469		-76.48319	
89.86337	3623.146		-76.60811	
89.91732	3618.788		-76.7317	
89.97127	3614.374		-76.85462	
90.02522	3609.897		-76.97739	
90.07916	3605.36		-77.10042	
90.13311	3600.784		-77.22408	
90.18706	3596.194		-77.34863	
90.241	3591.618		-77.4743	
90.29495	3587.069		-77.60127	
90.3489	3582.554		-77.7297	
90.40285	3578.071		-77.85966	
90.45679	3573.622		-77.99119	
90.51074	3569.214		-78.12422	
90.56469	3564.853		-78.25864	
90.61864	3560.545		-78.3942	
90.67258	3556.286		-78.53056	
90.72653	3552.072		-78.6673	
90.78048	3547.891		-78.80393	
90.83443	3543.731		-78.93987	
90.88837	3539.58		-79.07452	
90.94232	3535.432		-79.2073	
90.99627	3531.29		-79.33764	
91.05022	3527.158		-79.46503	
91.10416	3523.039		-79.58905	
91.15811	3518.936		-79.70927	
91.21206	3514.857		-79.82539	
91.26601	3510.8		-79.93711	
91.31995	3506.754		-80.04421	
91.3739	3502.707		-80.14651	
91.42785	3498.647		-80.24392	
91.4818	3494.574		-80.33643	
91.53574	3490.491		-80.4241	
91.58969	3486.396		-80.50704	
91.64365	3482.286		-80.58545	
91.69759	3478.16		-80.65954	
91.75154	3474.02		-80.72961	
91.80549	3469.874		-80.79604	
91.85944	3465.724		-80.85918	
91.91338	3461.566		-80.91946	
91.96733	3457.385		-80.97727	
92.02128	3453.164		-81.03303	
92.07523	3448.892		-81.0871	
92.12917	3444.565		-81.1398	
92.18312	3440.185		-81.19144	
92.23707	3435.756		-81.24226	
92.29102	3431.284		-81.29249	
92.34496	3426.778		-81.34231	
92.39891	3422.243		-81.39185	
92.45286	3417.681		-81.40636	
92.50681	3413.095		-81.41361	
92.56075	3408.492		-81.41646	
92.6147	3403.873		-81.41733	
92.66865	3399.235		-81.41787	
92.7226	3394.576		-81.41903	
92.77654	3389.894		-81.42125	
92.83049	3385.185		-81.42467	
92.88444	3380.442		-81.42925	
92.93839	3375.659		-81.43483	
92.99233	3370.843		-81.44122	
93.04628	3365.999		-81.44818	
93.10023	3361.143		-81.45553	
93.15417	3356.301		-81.46303	
93.20812	3351.508		-81.4705	
93.26207	3346.782		-81.47775	
93.31602	3342.135		-81.4846	
93.36996	3337.569		-81.49091	
93.42391	3333.085		-81.49652	
93.47786	3328.673		-81.5013	
93.53181	3324.312		-81.50513	
93.58575	3319.98		-81.50789	
93.6397	3315.662		-81.50947	
93.69365	3311.344		-81.50977	
93.7476	3307.018		-81.50872	
93.80154	3302.673		-81.50622	
93.85549	3298.323		-81.5022	
93.90945	3293.979		-81.4966	
93.96339	3289.648		-81.48936	
94.01734	3285.333		-81.48042	
94.07129	3280.982		-81.46975	
94.12524	3276.677		-81.4573	
94.17918	3272.398		-81.44305	
94.23313	3268.131		-81.42698	
94.28708	3263.868		-81.40908	
94.34103	3259.602		-81.38934	
94.39497	3255.33		-81.36776	
94.44892	3251.05		-81.34435	
94.50287	3246.761		-81.31912	
94.55682	3242.462		-81.29209	
94.61076	3238.155		-81.26328	
94.66471	3233.839		-81.23272	
94.71866	3229.516		-81.20044	
94.77261	3225.189		-81.16647	
94.82655	3220.859		-81.13085	
94.8805	3216.527		-81.09363	
94.93445	3212.194		-81.05485	
94.9884	3207.861		-81.01456	
