T[Â°C]	330nm [counts / mm]	S.D.	First derivative	S.D. of first derivative
20.00112	3455.108		-51.51106	
20.05506	3452.152		-51.44482	
20.10901	3449.201		-51.37916	
20.16296	3446.255		-51.31411	
20.21691	3443.314		-51.24967	
20.27086	3440.38		-51.18587	
20.32481	3437.452		-51.12271	
20.37875	3434.532		-51.0602	
20.4327	3431.618		-50.99835	
20.48665	3428.711		-50.93717	
20.5406	3425.812		-50.87665	
20.59455	3422.918		-50.81679	
20.6485	3420.031		-50.7576	
20.70244	3417.148		-50.69905	
20.75639	3414.266		-50.64115	
20.81034	3411.382		-50.58387	
20.86429	3408.492		-50.52719	
20.91824	3405.593		-50.4711	
20.97219	3402.69		-50.41555	
21.02613	3399.908		-50.36053	
21.08008	3397.147		-50.30597	
21.13403	3394.415		-50.25185	
21.18798	3391.72		-50.19811	
21.24193	3389.069		-50.1447	
21.29588	3386.465		-50.09156	
21.34982	3383.902		-50.03864	
21.40377	3381.37		-49.98586	
21.45772	3378.863		-49.93318	
21.51167	3376.369		-49.88052	
21.56562	3373.871		-49.82781	
21.61957	3371.358		-49.77499	
21.67352	3368.834		-49.72197	
21.72746	3366.307		-49.66869	
21.78141	3363.78		-49.61507	
21.83536	3361.251		-49.56106	
21.88931	3358.713		-49.50658	
21.94326	3356.164		-49.45156	
21.99721	3353.612		-49.39597	
22.05116	3351.055		-49.33975	
22.1051	3348.489		-49.28286	
22.15905	3345.91		-49.22528	
22.213	3343.315		-49.16702	
22.26695	3340.701		-49.10812	
22.3209	3338.068		-49.04876	
22.37485	3335.421		-48.98919	
22.42879	3332.765		-48.92992	
22.48274	3330.104		-48.87172	
22.53669	3327.435		-48.81572	
22.59064	3324.76		-48.76324	
22.64459	3322.084		-48.70765	
22.69854	3319.412		-48.65086	
22.75248	3316.741		-48.59296	
22.80643	3314.072		-48.53407	
22.86038	3311.407		-48.47435	
22.91433	3308.757		-48.41403	
22.96828	3306.121		-48.35335	
23.02223	3303.489		-48.29256	
23.07617	3300.854		-48.23193	
23.13012	3298.209		-48.1717	
23.18407	3295.553		-48.11211	
23.23802	3292.878		-48.05337	
23.29197	3290.182		-47.99564	
23.34592	3287.466		-47.93904	
23.39986	3284.738		-47.88364	
23.45381	3282.01		-47.82947	
23.50776	3279.286		-47.77647	
23.56171	3276.563		-47.72456	
23.61566	3273.842		-47.67357	
23.66961	3271.131		-47.62336	
23.72355	3268.434		-47.57375	
23.7775	3265.752		-47.52457	
23.83145	3263.084		-47.4757	
23.8854	3260.428		-47.42698	
23.93935	3257.784		-47.37831	
23.9933	3255.149		-47.32957	
24.04725	3252.519		-47.28069	
24.10119	3249.897		-47.23163	
24.15514	3247.293		-47.18238	
24.20909	3244.713		-47.13304	
24.26304	3242.161		-47.08372	
24.31699	3239.64		-47.03451	
24.37094	3237.156		-46.98551	
24.42488	3234.719		-46.93681	
24.47883	3232.332		-46.88848	
24.53278	3229.989		-46.84058	
24.58673	3227.686		-46.79316	
24.64068	3225.415		-46.74619	
24.69463	3223.167		-46.69966	
24.74858	3220.927		-46.65355	
24.80252	3218.678		-46.60784	
24.85647	3216.411		-46.56254	
24.91042	3214.12		-46.51771	
24.96437	3211.801		-46.47343	
25.01832	3209.454		-46.42981	
25.07227	3207.083		-46.38697	
25.12621	3204.694		-46.34507	
25.18016	3202.296		-46.3043	
25.23411	3199.893		-46.26489	
25.28806	3197.488		-46.22707	
25.34201	3195.079		-46.19109	
25.39596	3192.654		-46.15718	
25.4499	3190.199		-46.12558	
25.50385	3187.7		-46.0965	
25.5578	3185.151		-46.07006	
25.61175	3182.554		-46.04636	
25.6657	3179.916		-46.0254	
25.71965	3177.247		-46.00714	
25.77359	3174.563		-45.99146	
25.82754	3171.881		-45.97819	
25.88149	3169.217		-45.96712	
25.93544	3166.581		-45.95798	
25.98939	3163.974		-45.95051	
26.04334	3161.397		-45.94438	
26.09728	3158.856		-45.93929	
26.15123	3156.354		-45.93496	
26.20518	3153.886		-45.93115	
26.25913	3151.444		-45.92765	
26.31308	3149.012		-45.92424	
26.36703	3146.578		-45.92072	
26.42097	3144.129		-45.9169	
26.47492	3141.66		-45.91262	
26.52887	3139.173		-45.90774	
26.58282	3136.674		-45.90216	
26.63677	3134.173		-45.89578	
26.69072	3131.677		-45.88854	
26.74467	3129.181		-45.88036	
26.79861	3126.681		-45.87119	
26.85256	3124.181		-45.86096	
26.90651	3121.685		-45.84964	
26.96046	3119.193		-45.83723	
27.01441	3116.7		-45.82371	
27.06836	3114.197		-45.80908	
27.1223	3111.675		-45.79334	
27.17625	3109.13		-45.77654	
27.2302	3106.567		-45.75871	
27.28415	3103.994		-45.73998	
27.3381	3101.421		-45.72047	
27.39205	3098.856		-45.70038	
27.446	3096.308		-45.67989	
27.49994	3093.782		-45.65924	
27.55389	3091.29		-45.63865	
27.60784	3088.842		-45.61838	
27.66179	3086.441		-45.59865	
27.71574	3084.085		-45.57967	
27.76969	3081.768		-45.5616	
27.82363	3079.48		-45.54451	
27.87758	3077.211		-45.52842	
27.93153	3074.946		-45.51328	
27.98548	3072.668		-45.49898	
28.03943	3070.367		-45.48538	
28.09338	3068.037		-45.47232	
28.14732	3065.679		-45.4596	
28.20127	3063.3		-45.44701	
28.25522	3060.907		-45.43431	
28.30917	3058.505		-45.42124	
28.36312	3056.095		-45.40754	
28.41707	3053.677		-45.39297	
28.47101	3051.25		-45.37731	
28.52496	3048.815		-45.36044	
28.57891	3046.371		-45.34229	
28.63286	3043.921		-45.32286	
28.68681	3041.464		-45.30227	
28.74076	3038.995		-45.28062	
28.7947	3036.512		-45.25807	
28.84865	3034.016		-45.23475	
28.9026	3031.513		-45.21078	
28.95655	3029.007		-45.18629	
29.0105	3026.503		-45.16137	
29.06445	3024		-45.1361	
29.11839	3021.496		-45.11049	
29.17234	3018.996		-45.08452	
29.22629	3016.51		-45.05812	
29.28024	3014.048		-45.03115	
29.33419	3011.614		-45.00344	
29.38814	3009.202		-44.97475	
29.44209	3006.799		-44.94485	
29.49603	3004.389		-44.91348	
29.54998	3001.956		-44.88036	
29.60393	2999.492		-44.84528	
29.65788	2996.994		-44.80806	
29.71183	2994.466		-44.76854	
29.76578	2991.914		-44.72662	
29.81972	2989.342		-44.68218	
29.87367	2986.763		-44.6351	
29.92762	2984.192		-44.58527	
29.98157	2981.64		-44.53261	
30.03552	2979.118		-44.47708	
30.08947	2976.63		-44.41865	
30.14341	2974.171		-44.35735	
30.19736	2971.734		-44.29319	
30.25131	2969.312		-44.22618	
30.30526	2966.905		-44.15636	
30.35921	2964.512		-44.08376	
30.41316	2962.138		-44.00846	
30.4671	2959.783		-43.9306	
30.52105	2957.444		-43.85033	
30.575	2955.114		-43.76789	
30.62895	2952.79		-43.6836	
30.6829	2950.472		-43.59785	
30.73685	2948.162		-43.51112	
30.79079	2945.865		-43.42395	
30.84474	2943.589		-43.33687	
30.89869	2941.344		-43.25049	
30.95264	2939.133		-43.16543	
31.00659	2936.946		-43.0823	
31.06054	2934.762		-43.00171	
31.11448	2932.561		-42.92419	
31.16843	2930.325		-42.85024	
31.22238	2928.044		-42.78026	
31.27633	2925.708		-42.71455	
31.33028	2923.318		-42.65333	
31.38423	2920.888		-42.59666	
31.43818	2918.442		-42.54457	
31.49212	2915.999		-42.49691	
31.54607	2913.576		-42.45353	
31.60002	2911.188		-42.41413	
31.65397	2908.849		-42.37844	
31.70792	2906.564		-42.34612	
31.76187	2904.33		-42.31685	
31.81581	2902.137		-42.29028	
31.86976	2899.969		-42.26606	
31.92371	2897.818		-42.24391	
31.97766	2895.682		-42.22356	
32.03161	2893.559		-42.20483	
32.08556	2891.44		-42.18759	
32.1395	2889.316		-42.17171	
32.19345	2887.178		-42.15709	
32.2474	2885.026		-42.1436	
32.30135	2882.864		-42.13116	
32.3553	2880.701		-42.11974	
32.40925	2878.553		-42.1093	
32.4632	2876.434		-42.09986	
32.51714	2874.345		-42.09146	
32.57109	2872.279		-42.08409	
32.62504	2870.221		-42.07778	
32.67899	2868.156		-42.07252	
32.73294	2866.066		-42.06829	
32.78688	2863.931		-42.06511	
32.84084	2861.738		-42.063	
32.89478	2859.475		-42.06203	
32.94873	2857.136		-42.0623	
33.00268	2854.726		-42.0639	
33.05663	2852.261		-42.06695	
33.11058	2849.768		-42.07156	
33.16452	2847.268		-42.07789	
33.21847	2844.773		-42.08607	
33.27242	2842.289		-42.09628	
33.32637	2839.819		-42.10865	
33.38032	2837.368		-42.12326	
33.43427	2834.937		-42.14016	
33.48822	2832.519		-42.15926	
33.54216	2830.109		-42.18041	
33.59611	2827.71		-42.20332	
33.65006	2825.324		-42.22765	
33.70401	2822.953		-42.253	
33.75796	2820.591		-42.27893	
33.8119	2818.232		-42.30496	
33.86585	2815.878		-42.33064	
33.9198	2813.539		-42.35555	
33.97375	2811.233		-42.37932	
34.0277	2808.972		-42.40158	
34.08165	2806.757		-42.42201	
34.1356	2804.586		-42.44029	
34.18954	2802.451		-42.45615	
34.24349	2800.34		-42.46932	
34.29744	2798.241		-42.47961	
34.35139	2796.144		-42.48682	
34.40534	2794.041		-42.49084	
34.45929	2791.918		-42.49162	
34.51323	2789.759		-42.48912	
34.56718	2787.546		-42.48336	
34.62113	2785.277		-42.47431	
34.67508	2782.961		-42.46197	
34.72903	2780.62		-42.44632	
34.78298	2778.284		-42.42736	
34.83693	2775.971		-42.40514	
34.89087	2773.678		-42.37971	
34.94482	2771.394		-42.35112	
34.99877	2769.11		-42.3194	
35.05272	2766.819		-42.2846	
35.10667	2764.513		-42.24675	
35.16061	2762.184		-42.2059	
35.21457	2759.831		-42.16217	
35.26851	2757.457		-42.11572	
35.32246	2755.072		-42.06674	
35.37641	2752.683		-42.0155	
35.43036	2750.293		-41.96223	
35.48431	2747.907		-41.9072	
35.53825	2745.536		-41.85065	
35.5922	2743.19		-41.7928	
35.64615	2740.88		-41.73389	
35.7001	2738.607		-41.67409	
35.75405	2736.369		-41.61358	
35.80799	2734.155		-41.55252	
35.86195	2731.958		-41.49107	
35.91589	2729.769		-41.42936	
35.96984	2727.582		-41.36752	
36.02379	2725.393		-41.30566	
36.07774	2723.196		-41.24385	
36.13169	2720.982		-41.18216	
36.18563	2718.743		-41.12067	
36.23958	2716.472		-41.05947	
36.29353	2714.172		-40.99868	
36.34748	2711.853		-40.93841	
36.40143	2709.524		-40.87884	
36.45538	2707.194		-40.82015	
36.50933	2704.865		-40.76254	
36.56327	2702.538		-40.70624	
36.61722	2700.215		-40.65145	
36.67117	2697.9		-40.59837	
36.72512	2695.597		-40.54721	
36.77907	2693.311		-40.49816	
36.83302	2691.047		-40.45139	
36.88696	2688.811		-40.40705	
36.94091	2686.612		-40.36522	
36.99486	2684.451		-40.32596	
37.04881	2682.322		-40.28923	
37.10276	2680.217		-40.25497	
37.15671	2678.129		-40.22308	
37.21066	2676.057		-40.19348	
37.2646	2674.007		-40.16609	
37.31855	2671.983		-40.14084	
37.3725	2669.986		-40.11766	
37.42645	2668.011		-40.09644	
37.4804	2666.058		-40.07711	
37.53434	2664.131		-40.05962	
37.58829	2662.232		-40.04399	
37.64224	2660.356		-40.03026	
37.69619	2658.491		-40.01847	
37.75014	2656.627		-40.0087	
37.80409	2654.751		-40.00106	
37.85804	2652.842		-39.99562	
37.91198	2650.881		-39.99244	
37.96593	2648.856		-39.99154	
38.01988	2646.767		-39.99293	
38.07383	2644.624		-39.99659	
38.12778	2642.436		-40.00242	
38.18172	2640.213		-40.01031	
38.23568	2637.969		-40.02009	
38.28962	2635.717		-40.03157	
38.34357	2633.459		-40.04454	
38.39752	2631.195		-40.05879	
38.45147	2628.928		-40.0741	
38.50542	2626.659		-40.09027	
38.55936	2624.389		-40.10711	
38.61331	2622.123		-40.12444	
38.66726	2619.868		-40.14209	
38.72121	2617.625		-40.15987	
38.77516	2615.386		-40.17757	
38.82911	2613.145		-40.19496	
38.88305	2610.9		-40.21179	
38.937	2608.655		-40.22779	
38.99095	2606.416		-40.24265	
39.0449	2604.187		-40.2561	
39.09885	2601.97		-40.26782	
39.1528	2599.767		-40.27755	
39.20675	2597.573		-40.28503	
39.26069	2595.384		-40.29	
39.31464	2593.198		-40.29216	
39.36859	2591.015		-40.29126	
39.42254	2588.828		-40.28698	
39.47649	2586.631		-40.27904	
39.53043	2584.42		-40.26717	
39.58438	2582.194		-40.25117	
39.63833	2579.95		-40.23089	
39.69228	2577.694		-40.20623	
39.74623	2575.432		-40.17715	
39.80018	2573.166		-40.14374	
39.85413	2570.898		-40.10609	
39.90807	2568.627		-40.06437	
39.96202	2566.35		-40.0188	
40.01597	2564.073		-39.96962	
40.06992	2561.792		-39.91717	
40.12387	2559.508		-39.86173	
40.17781	2557.223		-39.80361	
40.23177	2554.955		-39.74308	
40.28571	2552.714		-39.68042	
40.33966	2550.503		-39.61589	
40.39361	2548.328		-39.5497	
40.44756	2546.194		-39.48207	
40.50151	2544.097		-39.41322	
40.55545	2542.02		-39.34341	
40.6094	2539.958		-39.27288	
40.66335	2537.912		-39.2019	
40.7173	2535.887		-39.13071	
40.77125	2533.887		-39.05959	
40.8252	2531.904		-38.9888	
40.87915	2529.927		-38.91866	
40.93309	2527.952		-38.8495	
40.98704	2525.973		-38.78165	
41.04099	2523.986		-38.71549	
41.09494	2521.986		-38.6514	
41.14889	2519.969		-38.58977	
41.20284	2517.936		-38.53096	
41.25678	2515.892		-38.47526	
41.31073	2513.849		-38.42292	
41.36468	2511.813		-38.3741	
41.41863	2509.785		-38.32891	
41.47258	2507.761		-38.28739	
41.52653	2505.738		-38.2495	
41.58047	2503.711		-38.21518	
41.63442	2501.676		-38.18428	
41.68837	2499.631		-38.15665	
41.74232	2497.574		-38.13209	
41.79627	2495.507		-38.11043	
41.85022	2493.434		-38.09149	
41.90416	2491.364		-38.0751	
41.95811	2489.309		-38.06112	
42.01206	2487.276		-38.04941	
42.06601	2485.265		-38.0399	
42.11996	2483.267		-38.03251	
42.17391	2481.273		-38.02717	
42.22786	2479.282		-38.0238	
42.2818	2477.289		-38.02231	
42.33575	2475.294		-38.02258	
42.3897	2473.3		-38.02446	
42.44365	2471.31		-38.02776	
42.4976	2469.324		-38.03226	
42.55154	2467.342		-38.03773	
42.6055	2465.361		-38.04391	
42.65944	2463.381		-38.05057	
42.71339	2461.402		-38.05746	
42.76734	2459.418		-38.06441	
42.82129	2457.424		-38.07126	
42.87524	2455.416		-38.0779	
42.92918	2453.398		-38.08427	
42.98313	2451.377		-38.09031	
43.03708	2449.35		-38.09599	
43.09103	2447.312		-38.10128	
43.14498	2445.251		-38.10619	
43.19893	2443.164		-38.11074	
43.25288	2441.046		-38.11495	
43.30682	2438.896		-38.11882	
43.36077	2436.708		-38.12233	
43.41472	2434.485		-38.12544	
43.46867	2432.235		-38.1281	
43.52262	2429.974		-38.13025	
43.57656	2427.721		-38.13178	
43.63051	2425.487		-38.13255	
43.68446	2423.277		-38.1324	
43.73841	2421.093		-38.13114	
43.79236	2418.93		-38.12857	
43.84631	2416.789		-38.12449	
43.90026	2414.665		-38.11868	
43.9542	2412.561		-38.1109	
44.00815	2410.478		-38.10094	
44.0621	2408.417		-38.08861	
44.11605	2406.377		-38.07376	
44.17	2404.36		-38.05633	
44.22395	2402.363		-38.03633	
44.27789	2400.385		-38.01382	
44.33184	2398.419		-37.98893	
44.38579	2396.464		-37.96185	
44.43974	2394.516		-37.93275	
44.49369	2392.575		-37.90187	
44.54764	2390.636		-37.8694	
44.60159	2388.695		-37.83554	
44.65553	2386.746		-37.8005	
44.70948	2384.783		-37.76443	
44.76343	2382.806		-37.72756	
44.81738	2380.813		-37.69006	
44.87133	2378.801		-37.65211	
44.92527	2376.768		-37.61393	
44.97923	2374.714		-37.57571	
45.03317	2372.637		-37.53764	
45.08712	2370.536		-37.49997	
45.14107	2368.414		-37.46292	
45.19502	2366.275		-37.42673	
45.24897	2364.13		-37.39166	
45.30291	2361.986		-37.35795	
45.35686	2359.847		-37.32581	
45.41081	2357.719		-37.29542	
45.46476	2355.604		-37.26696	
45.51871	2353.509		-37.24058	
45.57265	2351.443		-37.21637	
45.62661	2349.414		-37.19436	
45.68055	2347.425		-37.17456	
45.7345	2345.478		-37.1569	
45.78845	2343.574		-37.14127	
45.8424	2341.708		-37.12746	
45.89635	2339.874		-37.11523	
45.95029	2338.061		-37.10427	
46.00424	2336.255		-37.09424	
46.05819	2334.435		-37.08479	
46.11214	2332.588		-37.07558	
46.16609	2330.709		-37.06625	
46.22004	2328.799		-37.05648	
46.27399	2326.86		-37.04598	
46.32793	2324.895		-37.03451	
46.38188	2322.911		-37.02186	
46.43583	2320.919		-37.00792	
46.48978	2318.929		-36.99258	
46.54373	2316.949		-36.97582	
46.59768	2314.981		-36.95762	
46.65162	2313.021		-36.93798	
46.70557	2311.053		-36.9169	
46.75952	2309.065		-36.89437	
46.81347	2307.045		-36.87035	
46.86742	2304.983		-36.84484	
46.92137	2302.883		-36.81783	
46.97532	2300.751		-36.78933	
47.02926	2298.603		-36.75937	
47.08321	2296.455		-36.72803	
47.13716	2294.326		-36.69538	
47.19111	2292.228		-36.66155	
47.24506	2290.168		-36.62663	
47.299	2288.156		-36.59078	
47.35295	2286.192		-36.55416	
47.4069	2284.271		-36.51698	
47.46085	2282.377		-36.47945	
47.5148	2280.495		-36.4418	
47.56875	2278.606		-36.40422	
47.6227	2276.693		-36.36697	
47.67664	2274.74		-36.33018	
47.73059	2272.744		-36.29402	
47.78454	2270.705		-36.25854	
47.83849	2268.631		-36.22373	
47.89244	2266.537		-36.18956	
47.94638	2264.44		-36.15595	
48.00034	2262.356		-36.12281	
48.05428	2260.293		-36.09006	
48.10823	2258.261		-36.05761	
48.16218	2256.262		-36.02533	
48.21613	2254.295		-35.99309	
48.27008	2252.353		-35.96074	
48.32402	2250.426		-35.9281	
48.37797	2248.505		-35.89504	
48.43192	2246.579		-35.86142	
48.48587	2244.636		-35.8271	
48.53982	2242.677		-35.792	
48.59377	2240.709		-35.75603	
48.64771	2238.744		-35.71914	
48.70166	2236.792		-35.68132	
48.75561	2234.868		-35.64262	
48.80956	2232.984		-35.60308	
48.86351	2231.145		-35.56282	
48.91746	2229.349		-35.52201	
48.97141	2227.592		-35.48085	
49.02535	2225.86		-35.43961	
49.0793	2224.144		-35.39854	
49.13325	2222.431		-35.35791	
49.1872	2220.708		-35.31795	
49.24115	2218.97		-35.27884	
49.29509	2217.217		-35.24078	
49.34904	2215.443		-35.20397	
49.40299	2213.645		-35.16863	
49.45694	2211.821		-35.13499	
49.51089	2209.973		-35.10335	
49.56484	2208.104		-35.07396	
49.61879	2206.214		-35.04713	
49.67273	2204.307		-35.02316	
49.72668	2202.388		-35.00233	
49.78063	2200.46		-34.98492	
49.83458	2198.528		-34.97115	
49.88853	2196.589		-34.96121	
49.94247	2194.641		-34.9552	
49.99643	2192.682		-34.95316	
50.05037	2190.714		-34.95503	
50.10432	2188.733		-34.96067	
50.15827	2186.735		-34.96984	
50.21222	2184.721		-34.98223	
50.26617	2182.693		-34.99751	
50.32011	2180.664		-35.01526	
50.37406	2178.652		-35.03506	
50.42801	2176.677		-35.05648	
50.48196	2174.747		-35.07904	
50.53591	2172.862		-35.10224	
50.58986	2171.014		-35.12554	
50.64381	2169.192		-35.1484	
50.69775	2167.383		-35.17028	
50.7517	2165.577		-35.19065	
50.80565	2163.772		-35.20899	
50.8596	2161.971		-35.22486	
50.91355	2160.17		-35.23785	
50.96749	2158.37		-35.2476	
51.02144	2156.568		-35.25383	
51.07539	2154.763		-35.25627	
51.12934	2152.952		-35.25473	
51.18329	2151.139		-35.24905	
51.23724	2149.32		-35.2391	
51.29119	2147.499		-35.2248	
51.34513	2145.677		-35.20611	
51.39908	2143.853		-35.18309	
51.45303	2142.021		-35.15581	
51.50698	2140.171		-35.12442	
51.56093	2138.287		-35.0891	
51.61488	2136.359		-35.0501	
51.66882	2134.383		-35.00773	
51.72277	2132.363		-34.96236	
51.77672	2130.314		-34.91445	
51.83067	2128.25		-34.86446	
51.88462	2126.179		-34.8129	
51.93857	2124.11		-34.76024	
51.99252	2122.048		-34.70697	
52.04646	2119.999		-34.65353	
52.10041	2117.967		-34.60034	
52.15436	2115.955		-34.54774	
52.20831	2113.961		-34.49606	
52.26226	2111.974		-34.44553	
52.3162	2109.985		-34.3964	
52.37016	2107.991		-34.34885	
52.4241	2105.998		-34.30304	
52.47805	2104.012		-34.2591	
52.532	2102.043		-34.21716	
52.58595	2100.102		-34.17733	
52.6399	2098.204		-34.13971	
52.69384	2096.357		-34.10436	
52.74779	2094.564		-34.07134	
52.80174	2092.821		-34.04069	
52.85569	2091.115		-34.01245	
52.90964	2089.426		-33.98661	
52.96358	2087.738		-33.96315	
53.01754	2086.035		-33.94196	
53.07148	2084.312		-33.92292	
53.12543	2082.566		-33.90586	
53.17938	2080.8		-33.8906	
53.23333	2079.017		-33.87698	
53.28728	2077.229		-33.86483	
53.34122	2075.448		-33.854	
53.39517	2073.686		-33.84437	
53.44912	2071.95		-33.83577	
53.50307	2070.244		-33.82808	
53.55702	2068.566		-33.82113	
53.61097	2066.91		-33.81479	
53.66492	2065.265		-33.80894	
53.71886	2063.62		-33.80349	
53.77281	2061.964		-33.79834	
53.82676	2060.29		-33.79343	
53.88071	2058.595		-33.78872	
53.93466	2056.879		-33.78418	
53.98861	2055.138		-33.77984	
54.04255	2053.378		-33.77575	
54.0965	2051.611		-33.772	
54.15045	2049.849		-33.76871	
54.2044	2048.102		-33.76605	
54.25835	2046.37		-33.76417	
54.3123	2044.653		-33.76323	
54.36625	2042.948		-33.76336	
54.42019	2041.248		-33.76466	
54.47414	2039.542		-33.76718	
54.52809	2037.812		-33.77094	
54.58204	2036.041		-33.77596	
54.63599	2034.214		-33.78223	
54.68993	2032.328		-33.78973	
54.74389	2030.393		-33.79839	
54.79783	2028.424		-33.80811	
54.85178	2026.431		-33.81878	
54.90573	2024.422		-33.83025	
54.95968	2022.403		-33.84236	
55.01363	2020.381		-33.85493	
55.06757	2018.35		-33.86774	
55.12152	2016.303		-33.88054	
55.17547	2014.236		-33.89308	
55.22942	2012.155		-33.90506	
55.28337	2010.069		-33.91617	
55.33731	2007.989		-33.92604	
55.39127	2005.924		-33.93431	
55.44521	2003.883		-33.94054	
55.49916	2001.868		-33.94433	
55.55311	1999.886		-33.94527	
55.60706	1997.942		-33.94299	
55.66101	1996.044		-33.93712	
55.71495	1994.19		-33.92735	
55.7689	1992.376		-33.91339	
55.82285	1990.596		-33.89501	
55.8768	1988.849		-33.87204	
55.93075	1987.123		-33.84438	
55.9847	1985.414		-33.81199	
56.03865	1983.719		-33.77488	
56.09259	1982.036		-33.73316	
56.14654	1980.367		-33.68702	
56.20049	1978.708		-33.63667	
56.25444	1977.053		-33.58242	
56.30839	1975.401		-33.52465	
56.36234	1973.751		-33.46373	
56.41628	1972.099		-33.4001	
56.47023	1970.439		-33.33421	
56.52418	1968.763		-33.26652	
56.57813	1967.056		-33.19753	
56.63208	1965.305		-33.12773	
56.68603	1963.504		-33.05763	
56.73997	1961.661		-32.98769	
56.79392	1959.782		-32.91834	
56.84787	1957.875		-32.84996	
56.90182	1955.952		-32.78294	
56.95577	1954.029		-32.71762	
57.00972	1952.121		-32.65437	
57.06366	1950.237		-32.59347	
57.11761	1948.38		-32.53521	
57.17156	1946.546		-32.47982	
57.22551	1944.733		-32.42751	
57.27946	1942.941		-32.37841	
57.33341	1941.168		-32.33262	
57.38736	1939.417		-32.29015	
57.4413	1937.686		-32.25092	
57.49525	1935.971		-32.21482	
57.5492	1934.273		-32.18168	
57.60315	1932.592		-32.15128	
57.6571	1930.931		-32.12338	
57.71104	1929.289		-32.09773	
57.76499	1927.667		-32.07407	
57.81894	1926.06		-32.05215	
57.87289	1924.465		-32.03174	
57.92684	1922.875		-32.0126	
57.98079	1921.286		-31.99449	
58.03474	1919.689		-31.97721	
58.08868	1918.078		-31.96057	
58.14263	1916.445		-31.9444	
58.19658	1914.788		-31.92856	
58.25053	1913.104		-31.91299	
58.30448	1911.395		-31.89764	
58.35843	1909.664		-31.88252	
58.41237	1907.915		-31.86767	
58.46632	1906.153		-31.85315	
58.52027	1904.382		-31.83905	
58.57422	1902.604		-31.82546	
58.62817	1900.822		-31.8125	
58.68212	1899.042		-31.80027	
58.73606	1897.267		-31.78887	
58.79001	1895.496		-31.7784	
58.84396	1893.728		-31.76891	
58.89791	1891.965		-31.76043	
58.95186	1890.213		-31.75297	
59.00581	1888.479		-31.74644	
59.05975	1886.765		-31.74074	
59.1137	1885.071		-31.73567	
59.16765	1883.391		-31.73097	
59.2216	1881.715		-31.72638	
59.27555	1880.038		-31.7216	
59.3295	1878.359		-31.71634	
59.38345	1876.682		-31.71032	
59.43739	1875.005		-31.70322	
59.49134	1873.326		-31.69472	
59.54529	1871.642		-31.68447	
59.59924	1869.952		-31.67214	
59.65319	1868.257		-31.65737	
59.70713	1866.562		-31.63982	
59.76109	1864.868		-31.61918	
59.81503	1863.173		-31.59518	
59.86898	1861.472		-31.56758	
59.92293	1859.765		-31.53615	
59.97688	1858.051		-31.50073	
60.03083	1856.328		-31.46115	
60.08477	1854.594		-31.41727	
60.13872	1852.843		-31.36898	
60.19267	1851.077		-31.31622	
60.24662	1849.299		-31.25901	
60.30057	1847.516		-31.1974	
60.35452	1845.735		-31.13154	
60.40847	1843.967		-31.06159	
60.46241	1842.214		-30.9878	
60.51636	1840.481		-30.91042	
60.57031	1838.769		-30.82973	
60.62426	1837.077		-30.74602	
60.67821	1835.403		-30.65962	
60.73215	1833.738		-30.57088	
60.7861	1832.069		-30.48014	
60.84005	1830.383		-30.3877	
60.894	1828.675		-30.29387	
60.94795	1826.946		-30.1989	
61.0019	1825.204		-30.10298	
61.05585	1823.46		-30.00627	
61.10979	1821.724		-29.9089	
61.16374	1820.002		-29.81095	
61.21769	1818.295		-29.71249	
61.27164	1816.604		-29.61356	
61.32559	1814.93		-29.51425	
61.37954	1813.275		-29.41464	
61.43348	1811.64		-29.31483	
61.48743	1810.022		-29.21492	
61.54138	1808.418		-29.115	
61.59533	1806.825		-29.01513	
61.64928	1805.241		-28.91534	
61.70323	1803.674		-28.81565	
61.75718	1802.129		-28.71605	
61.81112	1800.607		-28.61649	
61.86507	1799.103		-28.51691	
61.91902	1797.611		-28.41721	
61.97297	1796.132		-28.31726	
62.02692	1794.671		-28.21689	
62.08086	1793.235		-28.1159	
62.13482	1791.827		-28.01404	
62.18876	1790.446		-27.91109	
62.24271	1789.087		-27.80677	
62.29666	1787.745		-27.70076	
62.35061	1786.415		-27.59272	
62.40456	1785.086		-27.48231	
62.4585	1783.75		-27.36913	
62.51245	1782.395		-27.2528	
62.5664	1781.023		-27.13288	
62.62035	1779.638		-27.00898	
62.6743	1778.249		-26.88065	
62.72824	1776.863		-26.74749	
62.7822	1775.479		-26.60907	
62.83614	1774.088		-26.46501	
62.89009	1772.68		-26.31486	
62.94404	1771.252		-26.15818	
62.99799	1769.801		-25.99452	
63.05194	1768.331		-25.82343	
63.10588	1766.847		-25.64449	
63.15983	1765.364		-25.45726	
63.21378	1763.891		-25.26128	
63.26773	1762.433		-25.05612	
63.32168	1760.993		-24.84132	
63.37563	1759.57		-24.61643	
63.42958	1758.16		-24.38106	
63.48352	1756.764		-24.13488	
63.53747	1755.374		-23.87755	
63.59142	1753.981		-23.6088	
63.64537	1752.58		-23.32829	
63.69932	1751.173		-23.03574	
63.75327	1749.765		-22.73078	
63.80721	1748.359		-22.41302	
63.86116	1746.95		-22.08204	
63.91511	1745.532		-21.73745	
63.96906	1744.098		-21.37873	
64.02301	1742.65		-21.00539	
64.07696	1741.193		-20.61693	
64.13091	1739.737		-20.21275	
64.18485	1738.288		-19.79224	
64.2388	1736.858		-19.35476	
64.29275	1735.459		-18.89957	
64.34669	1734.103		-18.42587	
64.40065	1732.801		-17.93269	
64.4546	1731.554		-17.41924	
64.50854	1730.358		-16.88446	
64.56249	1729.207		-16.32727	
64.61644	1728.095		-15.74663	
64.67039	1727.021		-15.14147	
64.72433	1725.986		-14.51071	
64.77828	1724.988		-13.85329	
64.83224	1724.031		-13.16805	
64.88618	1723.124		-12.45418	
64.94013	1722.273		-11.71057	
64.99408	1721.486		-10.9362	
65.04803	1720.768		-10.13011	
65.10197	1720.122		-9.291368	
65.15592	1719.545		-8.41909	
65.20987	1719.035		-7.512409	
65.26382	1718.585		-6.570313	
65.31777	1718.186		-5.592237	
65.37172	1717.831		-4.577197	
65.42567	1717.516		-3.524348	
65.47961	1717.237		-2.43294	
65.53356	1716.992		-1.302244	
65.58751	1716.771		-0.1315748	
65.64146	1716.564		1.079721	
65.69541	1716.368		2.332472	
65.74936	1716.186		3.626913	
65.80331	1716.034		4.963828	
65.85725	1715.926		6.343844	
65.9112	1715.875		7.767509	
65.96515	1715.883		9.235393	
66.0191	1715.945		10.74807	
66.07304	1716.063		12.30617	
66.127	1716.24		13.9106	
66.18095	1716.474		15.56158	
66.23489	1716.768		17.26009	
66.28884	1717.128		19.00703	
66.34279	1717.565		20.8033	
66.39674	1718.084		22.6499	
66.45068	1718.686		24.54792	
66.50463	1719.374		26.49851	
66.55859	1720.155		28.50316	
66.61253	1721.034		30.56244	
66.66648	1722.019		32.67792	
66.72043	1723.119		34.85077	
66.77438	1724.342		37.08217	
66.82832	1725.693		39.37326	
66.88227	1727.176		41.72511	
66.93622	1728.794		44.13876	
66.99017	1730.557		46.61518	
67.04412	1732.475		49.15562	
67.09807	1734.557		51.76019	
67.15202	1736.805		54.43	
67.20596	1739.222		57.16572	
67.25991	1741.8		59.96796	
67.31386	1744.53		62.83723	
67.36781	1747.407		65.774	
67.42175	1750.432		68.77863	
67.47571	1753.61		71.85178	
67.52966	1756.948		74.99276	
67.5836	1760.455		78.20205	
67.63755	1764.134		81.4796	
67.6915	1767.981		84.82529	
67.74545	1771.995		88.23888	
67.79939	1776.174		91.72008	
67.85334	1780.529		95.26845	
67.9073	1785.068		98.88402	
67.96124	1789.798		102.5652	
68.01519	1794.721		106.3119	
68.06914	1799.845		110.1235	
68.12309	1805.172		113.9994	
68.17703	1810.701		117.939	
68.23098	1816.432		121.9417	
68.28493	1822.375		126.0069	
68.33888	1828.539		130.1345	
68.39283	1834.928		134.3227	
68.44678	1841.547		138.5714	
68.50072	1848.409		142.8801	
68.55467	1855.527		147.2482	
68.60862	1862.912		151.6751	
68.66257	1870.577		156.1603	
68.71651	1878.531		160.7032	
68.77047	1886.781		165.3039	
68.82442	1895.322		169.9606	
68.87836	1904.149		174.6733	
68.93231	1913.255		179.4413	
68.98626	1922.639		184.2639	
69.04021	1932.303		189.1401	
69.09415	1942.247		194.0691	
69.1481	1952.475		199.0496	
69.20206	1962.989		204.0811	
69.256	1973.779		209.1605	
69.30995	1984.845		214.2868	
69.3639	1996.184		219.4576	
69.41785	2007.795		224.6705	
69.47179	2019.672		229.9225	
69.52574	2031.817		235.2102	
69.57969	2044.233		240.5298	
69.63364	2056.93		245.8778	
69.68759	2069.913		251.2479	
69.74154	2083.193		256.6357	
69.79549	2096.779		262.0356	
69.84943	2110.679		267.4411	
69.90338	2124.899		272.8457	
69.95733	2139.437		278.2419	
70.01128	2154.283		283.6221	
70.06523	2169.435		288.9785	
70.11918	2184.888		294.3007	
70.17313	2200.652		299.5803	
70.22707	2216.733		304.8074	
70.28102	2233.144		309.9718	
70.33497	2249.888		315.0628	
70.38892	2266.97		320.0694	
70.44286	2284.39		324.9801	
70.49682	2302.16		329.784	
70.55077	2320.28		334.468	
70.60471	2338.757		339.0208	
70.65866	2357.598		343.4303	
70.71261	2376.814		347.6847	
70.76656	2396.406		351.7722	
70.8205	2416.36		355.681	
70.87445	2436.653		359.3999	
70.92841	2457.27		362.9184	
70.98235	2478.191		366.2251	
71.0363	2499.418		369.3105	
71.09025	2520.951		372.1653	
71.1442	2542.796		374.7807	
71.19814	2564.961		377.1484	
71.25209	2587.458		379.2611	
71.30604	2610.306		381.1119	
71.35999	2633.522		382.6952	
71.41394	2657.103		384.0053	
71.46789	2681.042		385.038	
71.52184	2705.328		385.7896	
71.57578	2729.939		386.2574	
71.62973	2754.844		386.4394	
71.68368	2779.998		386.3344	
71.73763	2805.358		385.9419	
71.79158	2830.885		385.2623	
71.84553	2856.537		384.2967	
71.89948	2882.281		383.047	
71.95342	2908.071		381.5156	
72.00737	2933.86		379.7056	
72.06132	2959.607		377.6207	
72.11526	2985.275		375.2651	
72.16921	3010.827		372.6435	
72.22317	3036.233		369.7606	
72.27711	3061.443		366.623	
72.33106	3086.409		363.2362	
72.38501	3111.073		359.6068	
72.43896	3135.375		355.7416	
72.4929	3159.256		351.6478	
72.54685	3182.646		347.333	
72.6008	3205.478		342.8051	
72.65475	3227.702		338.0715	
72.7087	3249.279		333.1421	
72.76265	3270.19		328.0251	
72.8166	3290.421		322.7296	
72.87054	3309.957		317.2649	
72.92449	3328.794		311.6408	
72.97844	3346.935		305.8675	
73.03239	3364.383		299.9554	
73.08634	3381.136		293.9143	
73.14029	3397.193		287.7571	
73.19424	3412.558		281.4945	
73.24818	3427.244		275.1382	
73.30213	3441.26		268.7003	
73.35608	3454.621		262.1933	
73.41003	3467.332		255.6299	
73.46397	3479.411		249.0231	
73.51793	3490.883		242.385	
73.57188	3501.779		235.7308	
73.62582	3512.127		229.0728	
73.67977	3521.954		222.4244	
73.73372	3531.281		215.7988	
73.78767	3540.143		209.209	
73.84161	3548.579		202.6681	
73.89556	3556.626		196.1886	
73.94952	3564.322		189.7818	
74.00346	3571.698		183.4613	
74.05741	3578.79		177.2374	
74.11136	3585.618		171.1207	
74.16531	3592.2		165.1211	
74.21925	3598.544		159.2475	
74.2732	3604.652		153.5081	
74.32715	3610.527		147.9104	
74.3811	3616.182		142.4598	
74.43505	3621.625		137.1635	
74.489	3626.868		132.0251	
74.54295	3631.92		127.0483	
74.59689	3636.782		122.2358	
74.65084	3641.456		117.5894	
74.70479	3645.944		113.11	
74.75874	3650.257		108.7976	
74.81269	3654.403		104.6511	
74.86664	3658.386		100.67	
74.92059	3662.211		96.85154	
74.97453	3665.889		93.19296	
75.02848	3669.43		89.69086	
75.08243	3672.844		86.34145	
75.13638	3676.135		83.14058	
75.19032	3679.307		80.08376	
75.24428	3682.36		77.16586	
75.29823	3685.293		74.38282	
75.35217	3688.106		71.72925	
75.40612	3690.799		69.20013	
75.46007	3693.38		66.7904	
75.51402	3695.864		64.49505	
75.56796	3698.28		62.30915	
75.62191	3700.665		60.22788	
75.67587	3703.044		58.24633	
75.72981	3705.425		56.36054	
75.78376	3707.811		54.56588	
75.83771	3710.198		52.85815	
75.89165	3712.579		51.2333	
75.9456	3714.945		49.68742	
75.99955	3717.282		48.21674	
76.0535	3719.579		46.81757	
76.10745	3721.828		45.48611	
76.1614	3724.037		44.21923	
76.21535	3726.215		43.01327	
76.26929	3728.373		41.86478	
76.32324	3730.52		40.77032	
76.37719	3732.659		39.72636	
76.43114	3734.794		38.72935	
76.48508	3736.928		37.77566	
76.53903	3739.054		36.86159	
76.59299	3741.157		35.98331	
76.64693	3743.21		35.13744	
76.70088	3745.186		34.32027	
76.75483	3747.066		33.52839	
76.80878	3748.832		32.75853	
76.86272	3750.463		32.00763	
76.91667	3751.936		31.27284	
76.97062	3753.251		30.55153	
77.02457	3754.422		29.84126	
77.07852	3755.471		29.14017	
77.13247	3756.427		28.44637	
77.18642	3757.333		27.75835	
77.24036	3758.221		27.0749	
77.29431	3759.12		26.39502	
77.34826	3760.044		25.71802	
77.40221	3760.995		25.04348	
77.45616	3761.962		24.37116	
77.51011	3762.93		23.70138	
77.56406	3763.892		23.03442	
77.618	3764.856		22.37094	
77.67195	3765.824		21.71182	
77.7259	3766.81		21.0581	
77.77985	3767.821		20.411	
77.83379	3768.876		19.77181	
77.88775	3769.991		19.14179	
77.9417	3771.184		18.52247	
77.99564	3772.465		17.9151	
78.04959	3773.827		17.32093	
78.10354	3775.263		16.74113	
78.15749	3776.768		16.17676	
78.21143	3778.328		15.62876	
78.26538	3779.921		15.09792	
78.31934	3781.51		14.58474	
78.37328	3783.056		14.08968	
78.42723	3784.515		13.61267	
78.48118	3785.85		13.15339	
78.53513	3787.038		12.71125	
78.58907	3788.071		12.28536	
78.64302	3788.944		11.87459	
78.69697	3789.658		11.47758	
78.75092	3790.227		11.09281	
78.80487	3790.669		10.71885	
78.85882	3790.992		10.35409	
78.91277	3791.203		9.997031	
78.96671	3791.307		9.646303	
79.02066	3791.294		9.300674	
79.07461	3791.153		8.959109	
79.12856	3790.883		8.620802	
79.18251	3790.499		8.285165	
79.23646	3790.031		7.952019	
79.29041	3789.518		7.621332	
79.34435	3789		7.293402	
79.3983	3788.515		6.968817	
79.45225	3788.089		6.648429	
79.5062	3787.739		6.333307	
79.56014	3787.47		6.02472	
79.6141	3787.279		5.724058	
79.66805	3787.164		5.432972	
79.72199	3787.122		5.153067	
79.77594	3787.147		4.886049	
79.82989	3787.23		4.633657	
79.88383	3787.369		4.397674	
79.93778	3787.562		4.17988	
79.99173	3787.805		3.982023	
80.04568	3788.095		3.805731	
80.09963	3788.432		3.652567	
80.15358	3788.817		3.523826	
80.20753	3789.248		3.420668	
80.26147	3789.723		3.344051	
80.31542	3790.235		3.294723	
80.36937	3790.773		3.273145	
80.42332	3791.319		3.279499	
80.47727	3791.855		3.313641	
80.53122	3792.364		3.375093	
80.58517	3792.824		3.463017	
80.63911	3793.208		3.576196	
80.69306	3793.498		3.712997	
80.74701	3793.69		3.87145	
80.80096	3793.794		4.049251	
80.8549	3793.826		4.243855	
80.90886	3793.804		4.45255	
80.96281	3793.739		4.672409	
81.01675	3793.638		4.90049	
81.0707	3793.512		5.133814	
81.12465	3793.37		5.369442	
81.1786	3793.212		5.604573	
81.23254	3793.039		5.836577	
81.28649	3792.861		6.06307	
81.34045	3792.687		6.28196	
81.39439	3792.525		6.491375	
81.44834	3792.393		6.689829	
81.50229	3792.309		6.876076	
81.55624	3792.29		7.049131	
81.61018	3792.344		7.208246	
81.66413	3792.476		7.352865	
81.71808	3792.687		7.482589	
81.77203	3792.974		7.597162	
81.82598	3793.339		7.696408	
81.87993	3793.781		7.780337	
81.93388	3794.297		7.849064	
81.98782	3794.881		7.902815	
82.04177	3795.527		7.941881	
82.09572	3796.232		7.966606	
82.14967	3796.993		7.977327	
82.20362	3797.812		7.974408	
82.25757	3798.682		7.958195	
82.31152	3799.59		7.929034	
82.36546	3800.52		7.887192	
82.41941	3801.459		7.832861	
82.47336	3802.411		7.76609	
82.52731	3803.374		7.68681	
82.58125	3804.345		7.59478	
82.63521	3805.314		7.489601	
82.68916	3806.269		7.370719	
82.7431	3807.202		7.23741	
82.79705	3808.119		7.088802	
82.851	3809.033		6.923927	
82.90495	3809.945		6.741665	
82.95889	3810.847		6.540771	
83.01284	3811.736		6.319841	
83.0668	3812.604		6.077351	
83.12074	3813.445		5.811819	
83.17469	3814.243		5.521697	
83.22864	3814.982		5.205523	
83.28259	3815.652		4.861971	
83.33653	3816.243		4.489862	
83.39048	3816.748		4.088233	
83.44443	3817.175		3.656317	
83.49838	3817.534		3.193501	
83.55233	3817.832		2.699553	
83.60628	3818.067		2.174251	
83.66022	3818.247		1.617589	
83.71417	3818.373		1.029723	
83.76812	3818.443		0.4109369	
83.82207	3818.452		-0.2383445	
83.87601	3818.4		-0.9175487	
83.92997	3818.285		-1.626045	
83.98392	3818.108		-2.362742	
84.03786	3817.865		-3.126693	
84.09181	3817.553		-3.91669	
84.14576	3817.181		-4.731378	
84.19971	3816.768		-5.569281	
84.25365	3816.335		-6.428858	
84.3076	3815.899		-7.308514	
84.36156	3815.465		-8.206764	
84.4155	3815.042		-9.121723	
84.46945	3814.641		-10.05189	
84.5234	3814.271		-10.99561	
84.57735	3813.934		-11.95127	
84.63129	3813.621		-12.91718	
84.68524	3813.308		-13.8917	
84.73919	3812.97		-14.87314	
84.79314	3812.595		-15.85994	
84.84709	3812.164		-16.85013	
84.90104	3811.658		-17.84218	
84.95499	3811.057		-18.83455	
85.00893	3810.338		-19.82583	
85.06288	3809.498		-20.81475	
85.11683	3808.547		-21.80014	
85.17078	3807.495		-22.78092	
85.22473	3806.352		-23.75621	
85.27868	3805.126		-24.72474	
85.33263	3803.824		-25.68574	
85.38657	3802.46		-26.63824	
85.44052	3801.043		-27.58136	
85.49447	3799.565		-28.51417	
85.54842	3797.999		-29.43583	
85.60236	3796.324		-30.3455	
85.65631	3794.531		-31.24243	
85.71027	3792.621		-32.12604	
85.76421	3790.611		-32.99547	
85.81816	3788.521		-33.8503	
85.87211	3786.38		-34.69011	
85.92606	3784.206		-35.51452	
85.98	3782.012		-36.32325	
86.03395	3779.791		-37.11604	
86.0879	3777.534		-37.89272	
86.14185	3775.229		-38.6532	
86.1958	3772.869		-39.39718	
86.24975	3770.437		-40.12473	
86.3037	3767.919		-40.83595	
86.35764	3765.306		-41.53099	
86.41159	3762.6		-42.21011	
86.46554	3759.812		-42.87366	
86.51949	3756.963		-43.522	
86.57344	3754.076		-44.15565	
86.62739	3751.166		-44.77492	
86.68134	3748.242		-45.38045	
86.73528	3745.313		-45.97286	
86.78923	3742.373		-46.55282	
86.84318	3739.421		-47.121	
86.89713	3736.45		-47.67812	
86.95107	3733.457		-48.2249	
87.00503	3730.441		-48.7622	
87.05898	3727.406		-49.29063	
87.11292	3724.345		-49.81103	
87.16687	3721.26		-50.32412	
87.22082	3718.15		-50.83062	
87.27477	3715.021		-51.33122	
87.32871	3711.889		-51.82661	
87.38266	3708.787		-52.31738	
87.43661	3705.749		-52.80412	
87.49056	3702.798		-53.28711	
87.54451	3699.935		-53.76678	
87.59846	3697.143		-54.24341	
87.6524	3694.398		-54.71719	
87.70635	3691.669		-55.18826	
87.7603	3688.936		-55.65667	
87.81425	3686.192		-56.12245	
87.8682	3683.445		-56.58566	
87.92215	3680.706		-57.04611	
87.9761	3677.985		-57.50375	
88.03004	3675.287		-57.95838	
88.08399	3672.618		-58.40977	
88.13794	3669.979		-58.85766	
88.19189	3667.364		-59.30177	
88.24583	3664.76		-59.74182	
88.29979	3662.155		-60.17765	
88.35374	3659.522		-60.60887	
88.40768	3656.833		-61.03532	
88.46163	3654.063		-61.45668	
88.51558	3651.202		-61.87259	
88.56953	3648.237		-62.28257	
88.62347	3645.17		-62.68613	
88.67742	3642.014		-63.08274	
88.73138	3638.789		-63.47197	
88.78532	3635.503		-63.85321	
88.83927	3632.158		-64.22611	
88.89322	3628.74		-64.59029	
88.94717	3625.245		-64.94548	
89.00111	3621.664		-65.29142	
89.05506	3617.994		-65.62791	
89.10901	3614.233		-65.95473	
89.16296	3610.392		-66.27172	
89.21691	3606.462		-66.57858	
89.27086	3602.439		-66.87514	
89.32481	3598.323		-67.16121	
89.37875	3594.13		-67.43656	
89.4327	3589.878		-67.70103	
89.48665	3585.591		-67.95448	
89.5406	3581.28		-68.19682	
89.59455	3576.972		-68.42802	
89.6485	3572.674		-68.64806	
89.70245	3568.395		-68.85704	
89.75639	3564.124		-69.05511	
89.81034	3559.85		-69.24247	
89.86429	3555.554		-69.41936	
89.91824	3551.235		-69.58604	
89.97218	3546.897		-69.74273	
90.02614	3542.56		-69.88966	
90.08009	3538.228		-70.02698	
90.13403	3533.907		-70.15496	
90.18798	3529.604		-70.27393	
90.24193	3525.339		-70.38434	
90.29588	3521.122		-70.48677	
90.34982	3516.954		-70.58198	
90.40377	3512.832		-70.6708	
90.45773	3508.763		-70.75415	
90.51167	3504.756		-70.83289	
90.56562	3500.814		-70.9079	
90.61957	3496.927		-70.9799	
90.67352	3493.087		-71.04955	
90.72746	3489.292		-71.1174	
90.78141	3485.547		-71.18391	
90.83536	3481.849		-71.24944	
90.88931	3478.192		-71.31435	
90.94326	3474.57		-71.37888	
90.99721	3470.976		-71.44329	
91.05116	3467.417		-71.50785	
91.1051	3463.906		-71.57281	
91.15905	3460.458		-71.63844	
91.213	3457.076		-71.70497	
91.26694	3453.758		-71.77267	
91.3209	3450.49		-71.84175	
91.37485	3447.259		-71.91235	
91.42879	3444.042		-71.9846	
91.48274	3440.818		-72.05864	
91.53669	3437.574		-72.13467	
91.59064	3434.307		-72.21295	
91.64458	3431.021		-72.29377	
91.69853	3427.726		-72.37744	
91.75249	3424.425		-72.46432	
91.80643	3421.109		-72.55475	
91.86038	3417.763		-72.64907	
91.91433	3414.373		-72.74764	
91.96828	3410.921		-72.85081	
92.02222	3407.387		-72.95886	
92.07617	3403.749		-73.07204	
92.13012	3399.999		-73.19053	
92.18407	3396.129		-73.31448	
92.23802	3392.141		-73.44395	
92.29197	3388.038		-73.57896	
92.34592	3383.823		-73.71944	
92.39986	3379.497		-73.86533	
92.45381	3375.085		-73.99458	
92.50776	3370.613		-74.11386	
92.56171	3366.109		-74.2272	
92.61566	3361.586		-74.33819	
92.66961	3357.061		-74.44921	
92.72356	3352.532		-74.56174	
92.7775	3348.002		-74.67647	
92.83145	3343.458		-74.79364	
92.8854	3338.892		-74.91319	
92.93935	3334.283		-75.03488	
92.99329	3329.628		-75.15839	
93.04725	3324.92		-75.2834	
93.1012	3320.182		-75.40948	
93.15514	3315.438		-75.53631	
93.20909	3310.736		-75.66351	
93.26304	3306.106		-75.79079	
93.31699	3301.586		-75.91781	
93.37093	3297.187		-76.04429	
93.42488	3292.923		-76.16997	
93.47884	3288.778		-76.29462	
93.53278	3284.733		-76.41798	
93.58673	3280.749		-76.53985	
93.64068	3276.777		-76.66005	
93.69463	3272.787		-76.7784	
93.74857	3268.754		-76.89474	
93.80252	3264.659		-77.00894	
93.85647	3260.51		-77.12087	
93.91042	3256.332		-77.23044	
93.96437	3252.164		-77.33752	
94.01832	3248.038		-77.44205	
94.07227	3244.09		-77.54396	
94.12621	3240.101		-77.6432	
94.18016	3236.068		-77.73974	
94.23411	3232.012		-77.83353	
94.28806	3227.943		-77.92456	
94.34201	3223.865		-78.01282	
94.39596	3219.782		-78.09827	
94.44991	3215.695		-78.18095	
94.50385	3211.601		-78.26084	
94.5578	3207.503		-78.33798	
94.61175	3203.4		-78.41239	
94.6657	3199.293		-78.48409	
94.71964	3195.183		-78.55314	
94.7736	3191.069		-78.61958	
94.82755	3186.952		-78.68343	
94.88149	3182.832		-78.7448	
94.93544	3178.706		-78.80371	
94.98939	3174.571		-78.86024	
