T[Â°C]	350nm [counts / mm]	S.D.	First derivative	S.D. of first derivative
19.99899	6808.609	17.19775	-98.09746	2.809256
20.05298	6803.266	16.85541	-98.03658	2.749586
20.10697	6797.921	16.51283	-97.9757	2.689781
20.16097	6792.574	16.17114	-97.91482	2.629865
20.21496	6787.226	15.83083	-97.85397	2.569842
20.26895	6781.876	15.49256	-97.79314	2.509745
20.32294	6776.524	15.15712	-97.73235	2.449589
20.37693	6771.174	14.82586	-97.6716	2.389412
20.43093	6765.823	14.49936	-97.61092	2.329235
20.48492	6760.474	14.1786	-97.55031	2.269102
20.53891	6755.127	13.86504	-97.48978	2.209039
20.5929	6749.784	13.55829	-97.42937	2.149098
20.64689	6744.444	13.25858	-97.36907	2.089322
20.70088	6739.11	12.96652	-97.30891	2.029745
20.75488	6733.782	12.68066	-97.2489	1.970431
20.80887	6728.462	12.39948	-97.18905	1.911424
20.86286	6723.149	12.1199	-97.12939	1.852792
20.91685	6717.841	11.83725	-97.06992	1.79458
20.97084	6712.521	11.5453	-97.01066	1.736857
21.02483	6707.202	11.47457	-96.95163	1.67969
21.07882	6701.886	11.48012	-96.89284	1.623139
21.13282	6696.581	11.56559	-96.8343	1.567276
21.18681	6691.287	11.72736	-96.77602	1.51218
21.2408	6686.004	11.9565	-96.71801	1.457924
21.29479	6680.734	12.23717	-96.66028	1.40458
21.34878	6675.47	12.55062	-96.60283	1.352225
21.40278	6670.21	12.88122	-96.54565	1.300945
21.45677	6664.956	13.21986	-96.48875	1.250805
21.51076	6659.717	13.55646	-96.43209	1.20188
21.56475	6654.502	13.88459	-96.37568	1.154235
21.61874	6649.31	14.20341	-96.31949	1.107931
21.67274	6644.129	14.51238	-96.2635	1.063023
21.72673	6638.95	14.80946	-96.20767	1.019561
21.78072	6633.767	15.0863	-96.15198	0.9776073
21.83471	6628.576	15.32767	-96.09637	0.9372014
21.8887	6623.388	15.51649	-96.0408	0.8983965
21.94269	6618.215	15.644	-95.98521	0.8612528
21.99669	6613.068	15.71172	-95.92955	0.8258224
22.05068	6607.949	15.72451	-95.87373	0.7921652
22.10467	6602.855	15.68408	-95.81765	0.7603544
22.15866	6597.78	15.58992	-95.76124	0.7304977
22.21265	6592.717	15.43548	-95.70435	0.7027051
22.26664	6587.659	15.21619	-95.64687	0.6771562
22.32063	6582.599	14.92968	-95.58863	0.6541181
22.37463	6577.536	14.58082	-95.52945	0.633984
22.42862	6572.472	14.18522	-95.46913	0.6173556
22.48261	6567.409	13.76653	-95.40752	0.6051414
22.5366	6562.342	13.35627	-95.34448	0.5986302
22.59059	6557.265	12.98217	-95.2801	0.5994262
22.64459	6552.171	12.66394	-95.22564	0.6158801
22.69858	6547.063	12.41317	-95.17216	0.6343005
22.75257	6541.942	12.23189	-95.11982	0.6539921
22.80656	6536.804	12.11184	-95.0688	0.6742688
22.86055	6531.643	12.04036	-95.01926	0.6944458
22.91455	6526.459	12.00182	-94.97133	0.713869
22.96854	6521.259	11.98179	-94.92513	0.7319096
23.02253	6516.059	11.97121	-94.88075	0.7479715
23.07652	6510.869	11.96644	-94.83825	0.761492
23.13051	6505.693	11.96926	-94.79765	0.7719637
23.1845	6500.538	11.98418	-94.75895	0.7789478
23.23849	6495.404	12.01155	-94.72218	0.7821078
23.29249	6490.287	12.04866	-94.68729	0.7811778
23.34648	6485.173	12.09541	-94.65427	0.7760071
23.40047	6480.05	12.15522	-94.62305	0.7665333
23.45446	6474.908	12.23023	-94.59357	0.7527769
23.50845	6469.75	12.31665	-94.56573	0.7348515
23.56244	6464.595	12.40789	-94.53941	0.7129753
23.61644	6459.461	12.50195	-94.51451	0.6874416
23.67043	6454.36	12.59277	-94.4909	0.6586289
23.72442	6449.293	12.66789	-94.46839	0.6269736
23.77841	6444.25	12.71152	-94.44679	0.5929509
23.8324	6439.223	12.70906	-94.4259	0.5570824
23.8864	6434.201	12.64967	-94.40552	0.5198952
23.94039	6429.178	12.53089	-94.38545	0.4819118
23.99438	6424.148	12.36427	-94.36554	0.443623
24.04837	6419.105	12.1692	-94.34566	0.4054846
24.10236	6414.046	11.9686	-94.32571	0.3679222
24.15635	6408.974	11.78332	-94.30556	0.3313278
24.21035	6403.896	11.62905	-94.28514	0.296021
24.26434	6398.824	11.5121	-94.26438	0.2622349
24.31833	6393.755	11.42786	-94.24324	0.2301129
24.37232	6388.685	11.36391	-94.22172	0.1997274
24.42631	6383.61	11.30515	-94.19983	0.1711515
24.4803	6378.527	11.24155	-94.17761	0.1446178
24.5343	6373.435	11.17017	-94.15511	0.1208638
24.58829	6368.331	11.09203	-94.13238	0.1017075
24.64228	6363.215	11.01406	-94.10947	0.09072342
24.69627	6358.096	10.94879	-94.08646	0.09232318
24.75026	6352.978	10.91189	-94.06342	0.107766
24.80425	6347.862	10.91919	-94.04044	0.1341878
24.85825	6342.749	10.97959	-94.01755	0.1681643
24.91224	6337.641	11.09786	-93.99482	0.2074388
24.96623	6332.541	11.27017	-93.97231	0.2506237
25.02022	6327.45	11.4868	-93.95002	0.2967537
25.07421	6322.371	11.74234	-93.92795	0.3450262
25.12821	6317.303	12.03331	-93.90606	0.3946992
25.1822	6312.243	12.35003	-93.88428	0.4450453
25.23619	6307.188	12.67797	-93.86255	0.4953458
25.29018	6302.141	12.99958	-93.84078	0.5449353
25.34417	6297.103	13.29833	-93.81886	0.5932063
25.39816	6292.066	13.56211	-93.79664	0.639638
25.45216	6287.019	13.78404	-93.77399	0.683769
25.50615	6281.954	13.9556	-93.75079	0.7252442
25.56014	6276.869	14.07883	-93.72688	0.7637719
25.61413	6271.768	14.16583	-93.70216	0.7991428
25.66812	6266.657	14.22729	-93.67648	0.8312064
25.72211	6261.544	14.2726	-93.64977	0.8598735
25.77611	6256.438	14.30325	-93.62193	0.8850912
25.8301	6251.349	14.31139	-93.5929	0.9068568
25.88409	6246.285	14.27667	-93.56263	0.9251739
25.93808	6241.251	14.18327	-93.53107	0.9400746
25.99207	6236.25	14.02893	-93.49821	0.9516107
26.04606	6231.272	13.81738	-93.46409	0.9598763
26.10006	6226.304	13.55855	-93.42873	0.9649638
26.15405	6221.329	13.26768	-93.39217	0.9669657
26.20804	6216.338	12.96391	-93.35445	0.9659677
26.26203	6211.326	12.66807	-93.31553	0.9620581
26.31602	6206.292	12.39719	-93.27542	0.9553612
26.37002	6201.239	12.16083	-93.23411	0.9460351
26.42401	6196.171	11.96279	-93.1916	0.9343094
26.478	6191.096	11.80812	-93.14795	0.9204776
26.53199	6186.018	11.69885	-93.1032	0.9048486
26.58598	6180.941	11.63263	-93.05746	0.8877572
26.63997	6175.869	11.605	-93.01083	0.8695177
26.69397	6170.804	11.60717	-92.96346	0.8503725
26.74796	6165.743	11.63244	-92.91553	0.8304885
26.80195	6160.688	11.67989	-92.8672	0.809935
26.85594	6155.636	11.75316	-92.81864	0.7886976
26.90993	6150.586	11.85364	-92.76998	0.7666526
26.96392	6145.535	11.97663	-92.72134	0.7436328
27.01792	6140.486	12.11865	-92.67281	0.719412
27.07191	6135.442	12.27053	-92.62446	0.6937848
27.1259	6130.404	12.42175	-92.57637	0.6665495
27.17989	6125.371	12.5675	-92.52862	0.637569
27.23388	6120.345	12.70068	-92.48125	0.6067618
27.28787	6115.328	12.80711	-92.43432	0.5741192
27.34187	6110.32	12.87663	-92.38786	0.5397563
27.39586	6105.322	12.91078	-92.3419	0.5038564
27.44985	6100.333	12.9081	-92.29652	0.4667068
27.50384	6095.353	12.86101	-92.25176	0.4286731
27.55783	6090.382	12.76107	-92.2077	0.3901957
27.61183	6085.424	12.60597	-92.16441	0.3517876
27.66582	6080.48	12.40953	-92.12194	0.3140318
27.71981	6075.553	12.19032	-92.08035	0.2775405
27.7738	6070.635	11.9676	-92.03963	0.2429224
27.82779	6065.72	11.75425	-91.99986	0.2108137
27.88178	6060.801	11.55757	-91.96101	0.181861
27.93578	6055.876	11.38599	-91.92311	0.1567115
27.98977	6050.944	11.24024	-91.88615	0.1359977
28.04376	6046.01	11.11954	-91.85017	0.1201779
28.09775	6041.081	11.02605	-91.81518	0.1093386
28.15174	6036.16	10.96241	-91.78123	0.1029811
28.20573	6031.247	10.92931	-91.74836	0.1000416
28.25973	6026.335	10.93063	-91.71659	0.09915616
28.31372	6021.419	10.9692	-91.68592	0.09905827
28.36771	6016.494	11.04272	-91.65633	0.09875509
28.4217	6011.559	11.14704	-91.6278	0.09754889
28.47569	6006.615	11.27563	-91.60026	0.09497637
28.52968	6001.668	11.42389	-91.57365	0.09075135
28.58368	5996.726	11.58719	-91.54787	0.0846968
28.63767	5991.791	11.75308	-91.52285	0.07674639
28.69166	5986.865	11.90643	-91.4985	0.06697744
28.74565	5981.951	12.03783	-91.47475	0.05563616
28.79964	5977.051	12.14771	-91.45149	0.04335018
28.85364	5972.165	12.24105	-91.42866	0.03177283
28.90763	5967.289	12.32318	-91.40614	0.0257234
28.96162	5962.419	12.4046	-91.38385	0.03161136
29.01561	5957.554	12.49076	-91.36166	0.04646748
29.0696	5952.684	12.57907	-91.33947	0.06510521
29.12359	5947.799	12.66522	-91.3172	0.08535888
29.17759	5942.897	12.75018	-91.29482	0.1062772
29.23158	5937.975	12.83241	-91.27229	0.1272988
29.28557	5933.035	12.90419	-91.24962	0.1480339
29.33956	5928.079	12.95788	-91.2268	0.1682281
29.39355	5923.117	12.98605	-91.20387	0.1877495
29.44754	5918.158	12.98013	-91.18085	0.2066158
29.50154	5913.213	12.92795	-91.15778	0.2249656
29.55553	5908.287	12.81777	-91.1347	0.2430675
29.60952	5903.378	12.65193	-91.11162	0.2613142
29.66351	5898.483	12.44635	-91.08855	0.2801798
29.7175	5893.594	12.22322	-91.06549	0.3001762
29.77149	5888.7	12.00202	-91.04239	0.3217781
29.82549	5883.797	11.79832	-91.01919	0.3453578
29.87948	5878.886	11.62408	-90.99583	0.371136
29.93347	5873.963	11.48962	-90.97221	0.3991253
29.98746	5869.021	11.4076	-90.94824	0.4291432
30.04145	5864.057	11.38617	-90.92384	0.4607842
30.09545	5859.065	11.42135	-90.89889	0.4934812
30.14944	5854.048	11.50099	-90.87326	0.5265766
30.20343	5849.014	11.60958	-90.84686	0.5593603
30.25742	5843.975	11.7301	-90.81956	0.591118
30.31141	5838.946	11.84702	-90.79123	0.6211504
30.3654	5833.937	11.94936	-90.76178	0.6488454
30.4194	5828.953	12.02844	-90.73114	0.6736834
30.47339	5823.995	12.08196	-90.69922	0.6952614
30.52738	5819.063	12.1188	-90.66592	0.7133414
30.58137	5814.151	12.15077	-90.63114	0.7278263
30.63536	5809.253	12.1897	-90.59473	0.7387918
30.68935	5804.362	12.24345	-90.55654	0.7464358
30.74335	5799.474	12.31541	-90.51633	0.7510838
30.79734	5794.581	12.4062	-90.47384	0.753111
30.85133	5789.683	12.51592	-90.4288	0.7529185
30.90532	5784.78	12.63998	-90.38097	0.7508836
30.95931	5779.876	12.76799	-90.3301	0.7473514
31.0133	5774.981	12.88022	-90.27603	0.7426292
31.0673	5770.105	12.95209	-90.21867	0.7369962
31.12129	5765.258	12.96041	-90.15799	0.7306901
31.17528	5760.445	12.8852	-90.09406	0.723907
31.22927	5755.665	12.71944	-90.02704	0.7168093
31.28326	5750.91	12.46881	-89.95713	0.7094987
31.33726	5746.17	12.1492	-89.88463	0.702067
31.39125	5741.431	11.78386	-89.80988	0.6945391
31.44524	5736.68	11.39679	-89.73325	0.6869133
31.49923	5731.91	11.00381	-89.65513	0.6791688
31.55322	5727.12	10.61768	-89.57587	0.6712682
31.60721	5722.308	10.25247	-89.49585	0.6631688
31.66121	5717.47	9.918845	-89.41544	0.6548238
31.7152	5712.6	9.622549	-89.33503	0.6462018
31.76919	5707.697	9.365634	-89.25498	0.6372522
31.82318	5702.767	9.138537	-89.17568	0.6278974
31.87717	5697.82	8.92679	-89.0975	0.618028
31.93116	5692.87	8.72902	-89.02084	0.6075181
31.98516	5687.933	8.554081	-88.94611	0.5962023
32.03915	5683.022	8.41383	-88.87369	0.583928
32.09314	5678.145	8.3212	-88.80397	0.5705144
32.14713	5673.304	8.288598	-88.73729	0.5557878
32.20112	5668.498	8.320973	-88.6739	0.5395785
32.25512	5663.715	8.418754	-88.61404	0.5217258
32.3091	5658.949	8.581035	-88.55789	0.5020809
32.3631	5654.191	8.80468	-88.50563	0.4805348
32.41709	5649.431	9.08324	-88.45739	0.4570714
32.47108	5644.663	9.409254	-88.41323	0.4317675
32.52507	5639.88	9.769862	-88.37313	0.4048069
32.57906	5635.083	10.14935	-88.33698	0.3765009
32.63306	5630.28	10.52913	-88.30457	0.3472704
32.68705	5625.482	10.88789	-88.27559	0.317741
32.74104	5620.702	11.20537	-88.24969	0.2887562
32.79503	5615.954	11.4698	-88.22644	0.2614823
32.84902	5611.242	11.67542	-88.20536	0.237466
32.90302	5606.56	11.82294	-88.18594	0.2186412
32.95701	5601.896	11.91668	-88.1676	0.2070369
33.011	5597.247	11.96334	-88.14983	0.2041254
33.06499	5592.608	11.97329	-88.13206	0.2101313
33.11898	5587.979	11.95481	-88.11385	0.2238386
33.17297	5583.353	11.91102	-88.09472	0.2431993
33.22697	5578.728	11.83967	-88.07431	0.2660823
33.28096	5574.103	11.73688	-88.05232	0.2906803
33.33495	5569.482	11.60124	-88.02853	0.3155966
33.38894	5564.87	11.4361	-88.00281	0.3397469
33.44293	5560.264	11.24622	-87.97511	0.3623198
33.49693	5555.665	11.03907	-87.94543	0.3826714
33.55091	5551.068	10.82559	-87.91383	0.4003182
33.60491	5546.465	10.61477	-87.88041	0.4148948
33.6589	5541.849	10.41629	-87.84533	0.4261673
33.71289	5537.213	10.23676	-87.80875	0.434015
33.76688	5532.553	10.07454	-87.77091	0.4384139
33.82087	5527.864	9.930586	-87.73206	0.4394411
33.87487	5523.146	9.80665	-87.69247	0.4372731
33.92886	5518.397	9.706779	-87.65243	0.4321628
33.98285	5513.619	9.63483	-87.61225	0.4244704
34.03684	5508.82	9.598147	-87.57222	0.4146461
34.09083	5504.012	9.604274	-87.53263	0.4032151
34.14482	5499.202	9.656617	-87.49373	0.3907732
34.19882	5494.39	9.755356	-87.45573	0.3779843
34.25281	5489.575	9.894833	-87.41881	0.3656051
34.3068	5484.751	10.06435	-87.38312	0.3544656
34.36079	5479.921	10.24987	-87.34878	0.3454182
34.41478	5475.082	10.44045	-87.31589	0.3392864
34.46878	5470.232	10.62865	-87.28452	0.3368147
34.52277	5465.365	10.80903	-87.25471	0.33856
34.57676	5460.472	10.97528	-87.22644	0.3448817
34.63075	5455.547	11.12058	-87.19958	0.3558877
34.68474	5450.597	11.24123	-87.17401	0.3714076
34.73874	5445.637	11.33716	-87.1495	0.3910446
34.79272	5440.686	11.41005	-87.12581	0.414221
34.84672	5435.755	11.4596	-87.10263	0.4402452
34.90071	5430.855	11.48192	-87.0796	0.4683718
34.9547	5425.994	11.46743	-87.05627	0.4978768
35.00869	5421.179	11.4083	-87.03214	0.5280644
35.06268	5416.42	11.30501	-87.00668	0.5582873
35.11668	5411.721	11.16529	-86.97939	0.5879632
35.17067	5407.076	11.00301	-86.94975	0.6165615
35.22466	5402.478	10.83208	-86.91736	0.6436292
35.27865	5397.915	10.66322	-86.88181	0.6687574
35.33264	5393.369	10.50873	-86.8428	0.6916023
35.38663	5388.823	10.37761	-86.80003	0.7118839
35.44063	5384.27	10.27897	-86.75332	0.7293947
35.49462	5379.706	10.21643	-86.70255	0.7440015
35.54861	5375.138	10.19316	-86.64772	0.7556193
35.6026	5370.572	10.21463	-86.58896	0.7642141
35.65659	5366.011	10.28291	-86.5265	0.769765
35.71059	5361.458	10.3945	-86.46067	0.7722662
35.76458	5356.915	10.54476	-86.39189	0.7717187
35.81857	5352.383	10.72837	-86.32066	0.7681118
35.87256	5347.857	10.93769	-86.24751	0.7613781
35.92655	5343.329	11.16488	-86.17302	0.751467
35.98055	5338.79	11.40086	-86.09773	0.7382935
36.03453	5334.238	11.63664	-86.02221	0.7217946
36.08853	5329.674	11.86537	-85.94698	0.701919
36.14252	5325.099	12.08233	-85.87254	0.6786308
36.19651	5320.511	12.28544	-85.79934	0.6519283
36.2505	5315.901	12.47561	-85.72778	0.6218762
36.30449	5311.265	12.65107	-85.6582	0.5885828
36.35849	5306.599	12.80846	-85.59089	0.5522129
36.41248	5301.901	12.94284	-85.52609	0.5130172
36.46647	5297.176	13.0526	-85.46404	0.471311
36.52046	5292.426	13.13468	-85.40497	0.4274772
36.57445	5287.656	13.18384	-85.34908	0.3819139
36.62844	5282.877	13.19184	-85.29655	0.3350652
36.68244	5278.103	13.14625	-85.24752	0.287435
36.73643	5273.35	13.04074	-85.20205	0.2396609
36.79042	5268.632	12.88261	-85.16014	0.1926675
36.84441	5263.961	12.68761	-85.12173	0.14813
36.8984	5259.343	12.47276	-85.08666	0.1098327
36.9524	5254.772	12.25691	-85.0547	0.08688761
37.00639	5250.233	12.06227	-85.02552	0.09154984
37.06038	5245.706	11.90569	-84.99871	0.1202674
37.11437	5241.175	11.79534	-84.97382	0.1601086
37.16836	5236.637	11.73503	-84.9504	0.2040782
37.22235	5232.094	11.71918	-84.92799	0.2493275
37.27634	5227.551	11.73969	-84.90608	0.2945326
37.33034	5223.011	11.78735	-84.8842	0.3389099
37.38433	5218.477	11.85503	-84.86183	0.3818952
37.43832	5213.952	11.93387	-84.83848	0.4229958
37.49231	5209.446	12.01621	-84.81371	0.4617763
37.5463	5204.967	12.09638	-84.78717	0.4977947
37.6003	5200.515	12.16817	-84.75864	0.530697
37.65429	5196.074	12.23057	-84.72797	0.5601575
37.70828	5191.631	12.28705	-84.6951	0.585945
37.76227	5187.176	12.34306	-84.66003	0.607943
37.81626	5182.702	12.40209	-84.62282	0.6261368
37.87025	5178.202	12.4653	-84.58355	0.6406683
37.92425	5173.673	12.53192	-84.54235	0.6518065
37.97824	5169.115	12.59775	-84.49937	0.6599264
38.03223	5164.533	12.65791	-84.45478	0.6654821
38.08622	5159.928	12.69941	-84.40879	0.668976
38.14021	5155.303	12.70749	-84.3616	0.6709026
38.19421	5150.659	12.66687	-84.3134	0.6717389
38.2482	5146.005	12.56372	-84.26438	0.6718919
38.30219	5141.351	12.38862	-84.21475	0.6716599
38.35618	5136.708	12.13702	-84.16468	0.6712006
38.41017	5132.085	11.81372	-84.11434	0.6705419
38.46416	5127.486	11.43487	-84.0639	0.6695494
38.51815	5122.908	11.03009	-84.01353	0.667981
38.57215	5118.343	10.63498	-83.96341	0.6655325
38.62614	5113.781	10.27733	-83.9137	0.6618398
38.68013	5109.208	9.973209	-83.86454	0.6565222
38.73412	5104.616	9.726478	-83.81605	0.6492277
38.78811	5099.999	9.535714	-83.76832	0.6396738
38.84211	5095.363	9.389078	-83.7214	0.6276856
38.8961	5090.723	9.270592	-83.67535	0.6131645
38.95009	5086.092	9.169956	-83.63022	0.596105
39.00408	5081.48	9.086833	-83.58604	0.576574
39.05807	5076.895	9.024327	-83.54287	0.5547029
39.11206	5072.342	8.982535	-83.50071	0.5306373
39.16606	5067.829	8.96171	-83.4596	0.5045575
39.22005	5063.356	8.968073	-83.41955	0.4766254
39.27404	5058.921	9.008871	-83.38059	0.4470297
39.32803	5054.509	9.088903	-83.34271	0.4159623
39.38202	5050.099	9.208062	-83.30592	0.383636
39.43602	5045.674	9.361867	-83.2702	0.3502752
39.49001	5041.232	9.544234	-83.23554	0.3161095
39.544	5036.783	9.752898	-83.20193	0.2813653
39.59799	5032.333	9.980653	-83.16938	0.2462822
39.65198	5027.889	10.22019	-83.13787	0.2111157
39.70597	5023.451	10.46848	-83.10743	0.1761586
39.75996	5019.016	10.72416	-83.07803	0.1417629
39.81396	5014.58	10.98003	-83.04969	0.1084612
39.86795	5010.141	11.21932	-83.02236	0.07744485
39.92194	5005.7	11.42335	-82.99604	0.0521185
39.97593	5001.26	11.57879	-82.97071	0.0422952
40.02992	4996.819	11.67548	-82.94638	0.05505551
40.08392	4992.376	11.71522	-82.92304	0.07866319
40.13791	4987.93	11.71177	-82.9007	0.1045333
40.1919	4983.474	11.68071	-82.87929	0.1297643
40.24589	4979.008	11.63445	-82.85874	0.1531899
40.29988	4974.53	11.58406	-82.83897	0.1742136
40.35387	4970.046	11.53448	-82.81989	0.1926022
40.40787	4965.563	11.47863	-82.80138	0.2083953
40.46186	4961.088	11.40567	-82.78336	0.2219412
40.51585	4956.633	11.30781	-82.76569	0.2339015
40.56984	4952.203	11.18373	-82.74825	0.245204
40.62383	4947.796	11.04499	-82.73088	0.2570111
40.67783	4943.411	10.90597	-82.71343	0.2705619
40.73182	4939.042	10.7777	-82.69576	0.2869983
40.78581	4934.685	10.66881	-82.67767	0.3071723
40.8398	4930.331	10.58704	-82.65906	0.3314907
40.89379	4925.975	10.53751	-82.63976	0.3598485
40.94778	4921.614	10.52219	-82.61968	0.3917176
41.00177	4917.244	10.54617	-82.59876	0.4262588
41.05577	4912.863	10.60736	-82.57698	0.4625102
41.10976	4908.465	10.69511	-82.55434	0.4994775
41.16375	4904.047	10.80085	-82.53088	0.5361611
41.21774	4899.61	10.92282	-82.50667	0.5716214
41.27173	4895.158	11.05765	-82.48181	0.6050014
41.32573	4890.694	11.19745	-82.45646	0.6355427
41.37972	4886.223	11.32904	-82.43079	0.6626157
41.43371	4881.746	11.43797	-82.40498	0.6857431
41.4877	4877.263	11.51662	-82.3792	0.7046306
41.54169	4872.766	11.56011	-82.35361	0.7191452
41.59568	4868.251	11.56158	-82.32827	0.7293095
41.64968	4863.713	11.51982	-82.30328	0.7352431
41.70367	4859.147	11.44634	-82.27863	0.7371358
41.75766	4854.551	11.36075	-82.25433	0.7352823
41.81165	4849.927	11.27969	-82.23032	0.730036
41.86564	4845.284	11.21595	-82.2065	0.7218031
41.91964	4840.633	11.17513	-82.18276	0.71101
41.97363	4835.985	11.14935	-82.15898	0.6980988
42.02762	4831.351	11.11761	-82.13503	0.6835471
42.08161	4826.737	11.05608	-82.11078	0.6678227
42.1356	4822.151	10.94673	-82.08607	0.6513976
42.18959	4817.598	10.77586	-82.06074	0.634762
42.24358	4813.081	10.53977	-82.03454	0.6183695
42.29758	4808.602	10.25067	-82.00726	0.602649
42.35157	4804.16	9.928348	-81.97868	0.5879498
42.40556	4799.751	9.597172	-81.94861	0.5745473
42.45955	4795.367	9.27654	-81.91687	0.5626457
42.51354	4791.003	8.977128	-81.88328	0.552362
42.56754	4786.653	8.706677	-81.84767	0.5438043
42.62153	4782.31	8.471797	-81.80985	0.5370124
42.67552	4777.966	8.270586	-81.76967	0.5320195
42.72951	4773.621	8.094546	-81.72696	0.5288141
42.7835	4769.274	7.939206	-81.68161	0.527334
42.83749	4764.931	7.80758	-81.63354	0.5274408
42.89149	4760.592	7.707142	-81.58273	0.5288892
42.94548	4756.262	7.644889	-81.52922	0.5313764
42.99947	4751.944	7.624075	-81.47308	0.5345374
43.05346	4747.643	7.641861	-81.4144	0.5379713
43.10745	4743.361	7.690407	-81.35334	0.541266
43.16145	4739.098	7.762996	-81.29007	0.5440162
43.21544	4734.848	7.855414	-81.22478	0.5458372
43.26943	4730.6	7.966794	-81.15771	0.5463966
43.32342	4726.343	8.093809	-81.08914	0.5453926
43.37741	4722.068	8.237679	-81.01942	0.5425991
43.4314	4717.769	8.402015	-80.94894	0.5378544
43.48539	4713.438	8.594378	-80.8781	0.5310687
43.53939	4709.069	8.812196	-80.80734	0.5222266
43.59338	4704.659	9.042686	-80.73708	0.5114166
43.64737	4700.212	9.273293	-80.66769	0.4987793
43.70136	4695.741	9.492197	-80.59956	0.4845495
43.75535	4691.26	9.689776	-80.53299	0.4690681
43.80935	4686.784	9.859277	-80.46825	0.4527746
43.86334	4682.32	10.00033	-80.40554	0.436166
43.91733	4677.875	10.12296	-80.34499	0.4197812
43.97132	4673.451	10.23541	-80.28666	0.4041546
44.02531	4669.045	10.33724	-80.23056	0.3898044
44.0793	4664.659	10.4211	-80.17664	0.3771613
44.1333	4660.287	10.48058	-80.12476	0.3665488
44.18729	4655.928	10.50755	-80.07478	0.3581274
44.24128	4651.58	10.49237	-80.02643	0.351873
44.29527	4647.241	10.426	-79.97943	0.3475755
44.34926	4642.908	10.3037	-79.93347	0.3448732
44.40326	4638.58	10.12821	-79.8882	0.343307
44.45724	4634.259	9.911206	-79.84328	0.3423803
44.51124	4629.952	9.672928	-79.79836	0.3416305
44.56523	4625.659	9.436429	-79.75312	0.3406347
44.61922	4621.38	9.221571	-79.70731	0.3390597
44.67321	4617.115	9.043118	-79.66063	0.3366421
44.7272	4612.867	8.90486	-79.61288	0.3332201
44.7812	4608.638	8.800191	-79.56389	0.3286956
44.83519	4604.431	8.718914	-79.51352	0.3230896
44.88918	4600.237	8.653538	-79.46169	0.3165068
44.94317	4596.048	8.599971	-79.40836	0.3091042
44.99716	4591.854	8.557052	-79.3535	0.3010596
45.05116	4587.644	8.527157	-79.29716	0.292522
45.10515	4583.412	8.509259	-79.23936	0.2835546
45.15914	4579.153	8.502252	-79.18015	0.2741686
45.21313	4574.87	8.503661	-79.11964	0.2642781
45.26712	4570.569	8.507822	-79.05798	0.2537486
45.32111	4566.254	8.51232	-78.99534	0.2424062
45.37511	4561.934	8.522402	-78.93199	0.2300725
45.4291	4557.616	8.553795	-78.86822	0.2166084
45.48309	4553.305	8.619236	-78.80433	0.2019572
45.53708	4549.006	8.721704	-78.74065	0.1862267
45.59107	4544.72	8.85608	-78.67751	0.1697398
45.64507	4540.447	9.013556	-78.61526	0.1531697
45.69905	4536.188	9.177327	-78.5542	0.1376757
45.75305	4531.938	9.333284	-78.49464	0.1250252
45.80704	4527.695	9.460942	-78.43684	0.1175202
45.86103	4523.452	9.543021	-78.38104	0.1172973
45.91502	4519.205	9.570627	-78.32742	0.1251137
45.96901	4514.95	9.540959	-78.2761	0.1398231
46.02301	4510.686	9.457438	-78.22715	0.1592544
46.077	4506.414	9.328482	-78.1806	0.1812099
46.13099	4502.142	9.17353	-78.13641	0.2038874
46.18498	4497.874	9.015626	-78.09454	0.2258718
46.23897	4493.616	8.877149	-78.05487	0.2460118
46.29296	4489.372	8.772684	-78.01727	0.2633671
46.34696	4485.143	8.705766	-77.98153	0.2771982
46.40095	4480.935	8.67133	-77.9474	0.2869198
46.45494	4476.754	8.665019	-77.9146	0.2921206
46.50893	4472.599	8.678374	-77.88283	0.2925485
46.56292	4468.459	8.699677	-77.85179	0.2881154
46.61692	4464.325	8.720117	-77.82123	0.2788857
46.67091	4460.185	8.734182	-77.7909	0.2650442
46.7249	4456.034	8.737472	-77.76062	0.2469159
46.77889	4451.871	8.727505	-77.7302	0.2249374
46.83288	4447.703	8.706297	-77.69952	0.1996694
46.88688	4443.541	8.68372	-77.66845	0.1718133
46.94086	4439.396	8.674657	-77.63692	0.1423458
46.99486	4435.273	8.698446	-77.6049	0.1127931
47.04885	4431.17	8.769617	-77.57235	0.0861064
47.10284	4427.082	8.896164	-77.53925	0.06879383
47.15683	4423	9.074811	-77.50559	0.07020824
47.21082	4418.925	9.300871	-77.4714	0.0901032
47.26482	4414.854	9.56152	-77.43673	0.1195202
47.31881	4410.784	9.836435	-77.40163	0.1526624
47.3728	4406.716	10.10631	-77.36617	0.1869896
47.42679	4402.642	10.35519	-77.33039	0.2212916
47.48078	4398.547	10.57214	-77.29433	0.2548817
47.53477	4394.422	10.74715	-77.25802	0.2872697
47.58877	4390.258	10.8775	-77.22149	0.3180689
47.64276	4386.055	10.96178	-77.18478	0.3469499
47.69675	4381.817	11.00324	-77.14792	0.3736101
47.75074	4377.557	11.00633	-77.11095	0.3977987
47.80473	4373.282	10.97385	-77.07389	0.4193259
47.85873	4368.998	10.90677	-77.03677	0.4380603
47.91272	4364.711	10.80482	-76.99957	0.4539247
47.96671	4360.428	10.66737	-76.96223	0.466941
48.0207	4356.152	10.49453	-76.92474	0.4771941
48.07469	4351.889	10.28994	-76.88698	0.484863
48.12868	4347.644	10.06007	-76.84891	0.4901899
48.18267	4343.417	9.813873	-76.81046	0.4934686
48.23667	4339.208	9.560408	-76.77154	0.4950406
48.29066	4335.014	9.305693	-76.73204	0.4952839
48.34465	4330.835	9.054714	-76.69183	0.4945822
48.39864	4326.667	8.814459	-76.65075	0.4933313
48.45263	4322.513	8.593804	-76.6086	0.4919014
48.50663	4318.372	8.402516	-76.56519	0.4906718
48.56062	4314.246	8.247898	-76.52032	0.4899446
48.61461	4310.13	8.133335	-76.47379	0.4899596
48.6686	4306.019	8.055745	-76.42548	0.4908562
48.72259	4301.903	8.005064	-76.37524	0.4926631
48.77658	4297.778	7.966254	-76.323	0.4952884
48.83058	4293.644	7.923913	-76.2687	0.4985078
48.88457	4289.509	7.871857	-76.21233	0.5019727
48.93856	4285.379	7.816203	-76.15394	0.5052485
48.99255	4281.26	7.768789	-76.09363	0.5078633
49.04654	4277.156	7.743236	-76.03152	0.5093481
49.10054	4273.068	7.74714	-75.9678	0.5092967
49.15453	4268.989	7.782988	-75.90267	0.5073418
49.20852	4264.909	7.850781	-75.83633	0.5032482
49.26251	4260.817	7.947258	-75.76904	0.4968959
49.3165	4256.709	8.066934	-75.701	0.4883361
49.37049	4252.588	8.201946	-75.63248	0.477795
49.42448	4248.457	8.345139	-75.56365	0.4656629
49.47848	4244.318	8.488757	-75.49472	0.4524961
49.53247	4240.175	8.622258	-75.42583	0.4390167
49.58646	4236.031	8.733653	-75.35711	0.4260535
49.64045	4231.897	8.811882	-75.28863	0.4145508
49.69444	4227.779	8.853243	-75.22044	0.4054862
49.74844	4223.685	8.856135	-75.15263	0.3997901
49.80243	4219.614	8.82277	-75.08521	0.398212
49.85642	4215.567	8.758229	-75.01829	0.4011728
49.91041	4211.544	8.67091	-74.95193	0.4087013
49.9644	4207.542	8.574481	-74.88622	0.4204574
50.01839	4203.555	8.484593	-74.82127	0.4357648
50.07239	4199.581	8.413485	-74.7572	0.4537337
50.12638	4195.613	8.369864	-74.69417	0.4733795
50.18037	4191.646	8.35517	-74.63234	0.4936982
50.23436	4187.676	8.368299	-74.57188	0.5137599
50.28835	4183.701	8.40077	-74.51293	0.5327439
50.34235	4179.717	8.437577	-74.45564	0.5499657
50.39634	4175.726	8.462462	-74.40009	0.5648683
50.45033	4171.73	8.459855	-74.3464	0.5770131
50.50432	4167.74	8.428152	-74.29459	0.5860674
50.55831	4163.763	8.374146	-74.24471	0.5917809
50.6123	4159.806	8.305753	-74.19675	0.5940227
50.66629	4155.867	8.230082	-74.1507	0.5927361
50.72029	4151.942	8.157355	-74.1065	0.5879682
50.77428	4148.024	8.090312	-74.06411	0.5798696
50.82827	4144.11	8.03186	-74.0235	0.5686963
50.88226	4140.195	7.98738	-73.98459	0.5548074
50.93625	4136.274	7.960902	-73.94734	0.538678
50.99025	4132.342	7.953748	-73.9117	0.5208998
51.04424	4128.4	7.972012	-73.8776	0.5021362
51.09823	4124.452	8.01811	-73.84502	0.4831531
51.15222	4120.499	8.090853	-73.8139	0.4647387
51.20621	4116.544	8.183017	-73.7842	0.4477031
51.2602	4112.586	8.285963	-73.75591	0.4327722
51.3142	4108.621	8.393115	-73.72901	0.4205787
51.36819	4104.649	8.498628	-73.70353	0.4115637
51.42218	4100.666	8.599817	-73.67948	0.4059664
51.47617	4096.671	8.69712	-73.65686	0.4038355
51.53016	4092.663	8.794371	-73.63565	0.4050502
51.58416	4088.64	8.891008	-73.61577	0.4093556
51.63815	4084.603	8.985106	-73.59708	0.4164409
51.69214	4080.554	9.077155	-73.57937	0.4259802
51.74613	4076.5	9.166943	-73.56239	0.4376706
51.80012	4072.447	9.24684	-73.54585	0.4512443
51.85411	4068.402	9.302659	-73.52942	0.4664799
51.9081	4064.374	9.321843	-73.51274	0.4831877
51.9621	4060.371	9.297029	-73.49548	0.5012035
52.01609	4056.396	9.228234	-73.47726	0.5203741
52.07008	4052.444	9.12188	-73.45775	0.540549
52.12407	4048.513	8.988262	-73.4366	0.5615644
52.17806	4044.604	8.840931	-73.4135	0.5832256
52.23206	4040.716	8.692417	-73.38815	0.6052943
52.28605	4036.845	8.552405	-73.36028	0.62746
52.34004	4032.984	8.426579	-73.32967	0.6493328
52.39403	4029.12	8.315331	-73.29612	0.6704688
52.44802	4025.242	8.221566	-73.25946	0.6903962
52.50201	4021.34	8.150317	-73.21958	0.7086454
52.55601	4017.408	8.100401	-73.17636	0.7247896
52.61	4013.447	8.062166	-73.12973	0.7384173
52.66399	4009.458	8.021587	-73.07964	0.7491766
52.71798	4005.444	7.963827	-73.0261	0.7567327
52.77197	4001.41	7.882452	-72.96914	0.7607911
52.82597	3997.365	7.778539	-72.90884	0.761093
52.87996	3993.32	7.661752	-72.8453	0.7574134
52.93395	3989.279	7.540762	-72.77864	0.7496101
52.98794	3985.245	7.424125	-72.70904	0.7376582
53.04193	3981.223	7.320594	-72.63666	0.721661
53.09592	3977.213	7.236116	-72.56171	0.7018772
53.14991	3973.218	7.173018	-72.48436	0.6786762
53.20391	3969.234	7.131401	-72.40485	0.652548
53.2579	3965.254	7.112511	-72.3234	0.6241288
53.31189	3961.27	7.116944	-72.24025	0.5941197
53.36588	3957.278	7.142948	-72.15569	0.5633691
53.41987	3953.28	7.187287	-72.07001	0.5328355
53.47387	3949.285	7.245431	-71.98347	0.5035992
53.52786	3945.301	7.301719	-71.89635	0.4768401
53.58185	3941.334	7.331142	-71.80891	0.4537442
53.63584	3937.388	7.313304	-71.72137	0.4354019
53.68983	3933.466	7.240109	-71.63393	0.4225985
53.74382	3929.57	7.112607	-71.54676	0.4156805
53.79782	3925.697	6.936551	-71.45995	0.4144346
53.85181	3921.847	6.723525	-71.37358	0.41812
53.9058	3918.018	6.489295	-71.28768	0.4255989
53.95979	3914.208	6.249995	-71.20224	0.4355145
54.01378	3910.409	6.022767	-71.11726	0.446479
54.06778	3906.615	5.822966	-71.03271	0.4572306
54.12177	3902.818	5.660809	-70.94859	0.4667139
54.17576	3899.011	5.54068	-70.86489	0.4741194
54.22975	3895.193	5.46492	-70.78164	0.4788787
54.28374	3891.365	5.432347	-70.69888	0.4806308
54.33773	3887.531	5.432954	-70.6167	0.4792177
54.39172	3883.701	5.455421	-70.53518	0.4746622
54.44572	3879.882	5.488602	-70.45444	0.4671355
54.49971	3876.078	5.528733	-70.37462	0.4569422
54.5537	3872.291	5.577084	-70.29586	0.4444698
54.60769	3868.525	5.636841	-70.21832	0.4302273
54.66168	3864.783	5.711759	-70.14214	0.4148005
54.71568	3861.068	5.807819	-70.06747	0.3988824
54.76967	3857.382	5.93049	-69.9944	0.3832985
54.82366	3853.726	6.089493	-69.92302	0.3689881
54.87765	3850.097	6.294957	-69.85336	0.3569807
54.93164	3846.486	6.556066	-69.78543	0.3483107
54.98563	3842.884	6.876372	-69.7192	0.343872
55.03963	3839.285	7.24946	-69.65462	0.3442949
55.09362	3835.686	7.661297	-69.5916	0.3498174
55.14761	3832.086	8.092986	-69.53003	0.3602739
55.2016	3828.485	8.521147	-69.46977	0.3751198
55.25559	3824.877	8.920266	-69.41071	0.3935213
55.30959	3821.258	9.269977	-69.35272	0.4145088
55.36357	3817.621	9.561109	-69.29568	0.4370133
55.41757	3813.959	9.797655	-69.23948	0.4600159
55.47156	3810.266	9.986373	-69.18401	0.4825513
55.52555	3806.537	10.13009	-69.12917	0.5037303
55.57954	3802.771	10.22631	-69.07484	0.5227692
55.63353	3798.975	10.27391	-69.02096	0.5389745
55.68753	3795.158	10.27178	-68.96743	0.5517527
55.74152	3791.331	10.21581	-68.91416	0.5606338
55.79551	3787.501	10.10278	-68.86103	0.5652796
55.8495	3783.677	9.936331	-68.80791	0.5655127
55.90349	3779.861	9.723798	-68.75465	0.5613436
55.95749	3776.055	9.475045	-68.70108	0.5530418
56.01148	3772.264	9.20225	-68.64706	0.5411602
56.06547	3768.492	8.911612	-68.59246	0.5266006
56.11946	3764.74	8.60471	-68.53717	0.5106293
56.17345	3761.012	8.283923	-68.48113	0.4949056
56.22744	3757.302	7.958108	-68.42433	0.481423
56.28144	3753.608	7.641434	-68.36678	0.4724049
56.33543	3749.926	7.349329	-68.30853	0.4700126
56.38942	3746.252	7.096096	-68.24969	0.475935
56.44341	3742.587	6.89339	-68.19038	0.4910256
56.4974	3738.93	6.751083	-68.13075	0.51512
56.5514	3735.278	6.674788	-68.071	0.547115
56.60538	3731.624	6.663121	-68.01134	0.5853006
56.65938	3727.958	6.706504	-67.95197	0.6276661
56.71337	3724.272	6.787249	-67.8931	0.672149
56.76736	3720.562	6.888084	-67.83487	0.7168066
56.82135	3716.826	6.997304	-67.77741	0.7598803
56.87534	3713.068	7.111145	-67.72082	0.7998103
56.92934	3709.292	7.232309	-67.66513	0.8352821
56.98333	3705.507	7.364167	-67.61034	0.8652387
57.03732	3701.718	7.509745	-67.55637	0.8888391
57.09131	3697.924	7.670905	-67.50312	0.9054872
57.1453	3694.126	7.84822	-67.45042	0.9147979
57.1993	3690.327	8.036942	-67.39807	0.9165773
57.25329	3686.538	8.228568	-67.34585	0.9108535
57.30728	3682.77	8.41304	-67.29349	0.8978312
57.36127	3679.027	8.576949	-67.24074	0.8779225
57.41526	3675.315	8.710101	-67.18729	0.8517166
57.46925	3671.64	8.80486	-67.13287	0.8199749
57.52325	3668.001	8.850109	-67.07719	0.7835847
57.57724	3664.398	8.833992	-67.01997	0.7435341
57.63123	3660.83	8.750388	-66.96095	0.7009085
57.68522	3657.299	8.597322	-66.89987	0.6568718
57.73921	3653.806	8.37549	-66.83652	0.6126858
57.79321	3650.347	8.089089	-66.77068	0.5697035
57.84719	3646.919	7.752042	-66.70217	0.5293556
57.90119	3643.512	7.382831	-66.63083	0.4930881
57.95518	3640.124	7.006553	-66.55653	0.4621947
58.00917	3636.75	6.651839	-66.47919	0.4376363
58.06316	3633.391	6.339865	-66.39878	0.419822
58.11715	3630.042	6.082432	-66.31537	0.4085103
58.17115	3626.693	5.879447	-66.22906	0.402815
58.22514	3623.332	5.724877	-66.14005	0.4014189
58.27913	3619.951	5.606311	-66.04854	0.4028333
58.33312	3616.542	5.507657	-65.95479	0.4056012
58.38711	3613.101	5.413072	-65.85908	0.4084767
58.4411	3609.626	5.310164	-65.76169	0.4104946
58.4951	3606.121	5.194699	-65.66293	0.4109601
58.54909	3602.588	5.071496	-65.56311	0.4094482
58.60308	3599.029	4.951066	-65.46255	0.4057448
58.65707	3595.438	4.844172	-65.36154	0.3998429
58.71106	3591.813	4.762403	-65.26037	0.391888
58.76506	3588.15	4.72123	-65.15924	0.3821706
58.81905	3584.456	4.73466	-65.05834	0.3711216
58.87304	3580.736	4.813718	-64.95782	0.3592959
58.92703	3577.003	4.961956	-64.85775	0.3473855
58.98102	3573.271	5.171558	-64.75817	0.3361972
59.03502	3569.55	5.427304	-64.65907	0.3266478
59.089	3565.842	5.712195	-64.56035	0.3196808
59.143	3562.15	6.009586	-64.46185	0.3162367
59.19699	3558.48	6.305946	-64.36335	0.3171307
59.25098	3554.842	6.590548	-64.26455	0.3228923
59.30497	3551.241	6.853822	-64.16509	0.3336995
59.35896	3547.678	7.09079	-64.06459	0.3492735
59.41296	3544.148	7.298723	-63.96259	0.3689791
59.46695	3540.64	7.475687	-63.8586	0.3918886
59.52094	3537.142	7.620587	-63.75213	0.4169477
59.57493	3533.65	7.734492	-63.64263	0.4430665
59.62892	3530.161	7.823711	-63.52954	0.4691619
59.68291	3526.677	7.89541	-63.4123	0.4942255
59.73691	3523.204	7.954227	-63.29035	0.5172998
59.7909	3519.749	8.004111	-63.16317	0.5375063
59.84489	3516.318	8.044277	-63.03026	0.5540383
59.89888	3512.917	8.072408	-62.89116	0.5661955
59.95287	3509.547	8.084037	-62.74545	0.5733935
60.00687	3506.21	8.073209	-62.59275	0.5751975
60.06086	3502.907	8.03982	-62.43279	0.5713529
60.11485	3499.638	7.986668	-62.26538	0.5617804
60.16884	3496.397	7.920549	-62.09039	0.5465615
60.22283	3493.179	7.851721	-61.90779	0.5259066
60.27682	3489.972	7.789643	-61.71763	0.5001376
60.33081	3486.761	7.740292	-61.52001	0.4696747
60.38481	3483.531	7.704086	-61.31507	0.43501
60.4388	3480.278	7.678415	-61.10304	0.3967285
60.49279	3477.003	7.660063	-60.88419	0.35548
60.54678	3473.707	7.647545	-60.65885	0.311988
60.60077	3470.393	7.643766	-60.42741	0.2670622
60.65477	3467.06	7.652899	-60.19027	0.2216076
60.70876	3463.712	7.679606	-59.94786	0.1766939
60.76275	3460.354	7.72521	-59.70063	0.1338268
60.81674	3456.994	7.79005	-59.44904	0.09576502
60.87073	3453.634	7.873799	-59.19356	0.06909207
60.92472	3450.285	7.976575	-58.9346	0.06559314
60.97872	3446.955	8.097517	-58.67256	0.08490356
61.03271	3443.65	8.233061	-58.40776	0.1133867
61.0867	3440.374	8.375322	-58.14043	0.1434458
61.14069	3437.121	8.512983	-57.87074	0.1723482
61.19468	3433.883	8.630617	-57.59872	0.1990163
61.24868	3430.656	8.714984	-57.32433	0.2230106
61.30267	3427.439	8.759626	-57.04744	0.2441859
61.35666	3424.237	8.764652	-56.76784	0.2626044
61.41065	3421.054	8.731447	-56.48524	0.2784545
61.46464	3417.893	8.664975	-56.19928	0.2920069
61.51863	3414.763	8.571462	-55.90949	0.3036018
61.57262	3411.672	8.455338	-55.61536	0.3136181
61.62662	3408.62	8.318223	-55.31629	0.3224576
61.68061	3405.608	8.15948	-55.01164	0.330526
61.7346	3402.636	7.981835	-54.70071	0.3382024
61.78859	3399.701	7.791869	-54.38281	0.3458222
61.84258	3396.805	7.597329	-54.0572	0.3536274
61.89658	3393.948	7.40196	-53.72314	0.3617465
61.95057	3391.126	7.207321	-53.37989	0.3701632
62.00456	3388.333	7.016085	-53.02671	0.3787431
62.05855	3385.56	6.828751	-52.66285	0.3872725
62.11254	3382.799	6.645989	-52.28764	0.3954688
62.16653	3380.043	6.469027	-51.90038	0.4030506
62.22053	3377.287	6.300488	-51.50045	0.4097241
62.27452	3374.529	6.144714	-51.08726	0.4152178
62.32851	3371.766	6.006197	-50.66023	0.4192455
62.3825	3368.998	5.887878	-50.21884	0.4215344
62.43649	3366.226	5.793642	-49.76263	0.4218211
62.49049	3363.457	5.724648	-49.29117	0.419869
62.54448	3360.697	5.681848	-48.80408	0.4154611
62.59847	3357.95	5.668498	-48.30103	0.4084255
62.65246	3355.22	5.691665	-47.78172	0.3985897
62.70645	3352.509	5.755005	-47.2459	0.3858254
62.76044	3349.821	5.856703	-46.69337	0.3700207
62.81443	3347.156	5.987413	-46.12392	0.3510764
62.86843	3344.519	6.136322	-45.5374	0.3289501
62.92242	3341.91	6.294079	-44.93366	0.3036704
62.97641	3339.331	6.455683	-44.31253	0.2753739
63.0304	3336.782	6.620788	-43.67384	0.2443517
63.08439	3334.261	6.790377	-43.01735	0.2111351
63.13839	3331.769	6.966981	-42.34281	0.17674
63.19238	3329.304	7.149796	-41.64991	0.1433279
63.24637	3326.866	7.335214	-40.93829	0.1156467
63.30036	3324.454	7.514729	-40.20758	0.1030733
63.35435	3322.061	7.679787	-39.45738	0.1147049
63.40834	3319.683	7.823036	-38.68723	0.1475716
63.46234	3317.321	7.939151	-37.89662	0.1928576
63.51633	3314.983	8.028293	-37.085	0.2449059
63.57032	3312.67	8.090925	-36.25175	0.3008913
63.62431	3310.388	8.125736	-35.39616	0.3593036
63.6783	3308.14	8.13483	-34.51744	0.4191794
63.7323	3305.931	8.123218	-33.61472	0.479807
63.78629	3303.764	8.096403	-32.68704	0.5406212
63.84028	3301.644	8.05427	-31.73341	0.6011803
63.89427	3299.574	7.995697	-30.7527	0.6610832
63.94826	3297.56	7.921933	-29.74376	0.7200121
64.00225	3295.606	7.834572	-28.70533	0.7777204
64.05624	3293.722	7.737965	-27.63612	0.8340301
64.11024	3291.912	7.637564	-26.53476	0.8887435
64.16423	3290.176	7.538312	-25.39986	0.9417574
64.21822	3288.517	7.443908	-24.23003	0.9929804
64.27221	3286.939	7.352792	-23.02385	1.04236
64.3262	3285.445	7.260038	-21.77991	1.089957
64.3802	3284.033	7.162439	-20.49681	1.13577
64.43419	3282.705	7.062164	-19.1732	1.179838
64.48818	3281.459	6.962203	-17.80766	1.22221
64.54217	3280.297	6.867676	-16.39884	1.262971
64.59616	3279.22	6.785913	-14.94537	1.302097
64.65015	3278.229	6.726223	-13.4459	1.339677
64.70415	3277.323	6.695465	-11.89911	1.375732
64.75814	3276.497	6.695301	-10.30372	1.410268
64.81213	3275.751	6.724712	-8.658487	1.443356
64.86612	3275.084	6.782373	-6.962115	1.474991
64.92011	3274.496	6.865603	-5.213405	1.50512
64.97411	3273.984	6.967747	-3.41109	1.533743
65.0281	3273.545	7.07827	-1.553977	1.560805
65.08208	3273.176	7.187744	0.3591671	1.586168
65.13608	3272.875	7.286847	2.32959	1.609781
65.19007	3272.639	7.367575	4.358573	1.631609
65.24406	3272.469	7.425505	6.447347	1.651631
65.29806	3272.364	7.462381	8.597288	1.669931
65.35204	3272.321	7.484824	10.80972	1.686608
65.40604	3272.343	7.499183	13.08601	1.701782
65.46003	3272.433	7.509767	15.4276	1.715683
65.51402	3272.604	7.517925	17.83596	1.728653
65.56802	3272.87	7.521962	20.31262	1.740984
65.622	3273.243	7.523492	22.85917	1.753065
65.67599	3273.738	7.528742	25.47736	1.765407
65.72999	3274.363	7.545123	28.16889	1.778425
65.78398	3275.126	7.573633	30.93568	1.792569
65.83797	3276.031	7.60882	33.77969	1.808349
65.89197	3277.075	7.643196	36.70298	1.826211
65.94595	3278.257	7.66796	39.70763	1.846652
65.99995	3279.577	7.671425	42.79595	1.870176
66.05394	3281.043	7.644199	45.9702	1.897136
66.10793	3282.657	7.583229	49.23269	1.927746
66.16193	3284.426	7.49311	52.58584	1.962171
66.21591	3286.358	7.385951	56.03205	2.000559
66.26991	3288.469	7.271118	59.57373	2.042757
66.3239	3290.769	7.153648	63.21341	2.088834
66.37789	3293.271	7.034606	66.95351	2.138605
66.43188	3295.982	6.916502	70.79641	2.191923
66.48587	3298.909	6.801985	74.74457	2.248565
66.53986	3302.055	6.694931	78.80039	2.308382
66.59386	3305.427	6.601236	82.9662	2.37106
66.64785	3309.027	6.522382	87.24443	2.436559
66.70184	3312.856	6.453422	91.63738	2.50468
66.75583	3316.909	6.385251	96.1474	2.575381
66.80982	3321.183	6.311263	100.7767	2.648509
66.86382	3325.677	6.229748	105.5275	2.724129
66.91781	3330.394	6.14182	110.402	2.802243
66.9718	3335.337	6.056356	115.4024	2.883055
67.02579	3340.518	5.983954	120.5308	2.966583
67.07978	3345.953	5.93515	125.7894	3.052924
67.13377	3351.658	5.91671	131.1801	3.142249
67.18777	3357.643	5.930988	136.7049	3.234535
67.24176	3363.914	5.979526	142.3658	3.329885
67.29575	3370.478	6.067162	148.165	3.428517
67.34974	3377.343	6.201457	154.1043	3.530466
67.40373	3384.509	6.382316	160.1859	3.635772
67.45773	3391.974	6.603943	166.4118	3.744537
67.51172	3399.736	6.857777	172.7838	3.856663
67.5657	3407.794	7.13239	179.3039	3.972208
67.6197	3416.152	7.419996	185.9741	4.091074
67.67369	3424.817	7.720367	192.7961	4.213292
67.72768	3433.805	8.035678	199.7716	4.338645
67.78168	3443.136	8.365934	206.9021	4.466977
67.83566	3452.832	8.709612	214.1886	4.597848
67.88966	3462.917	9.068701	221.6319	4.730986
67.94365	3473.411	9.446575	229.2325	4.865888
67.99764	3484.335	9.842105	236.9906	5.002201
68.05164	3495.699	10.24719	244.9055	5.139241
68.10562	3507.508	10.65316	252.9765	5.276396
68.15961	3519.765	11.05511	261.2019	5.412796
68.21361	3532.473	11.44848	269.5798	5.5477
68.2676	3545.638	11.82908	278.1076	5.680241
68.32159	3559.265	12.18899	286.7825	5.80972
68.37559	3573.363	12.5229	295.6006	5.935289
68.42957	3587.936	12.83091	304.5582	6.056227
68.48357	3602.986	13.1157	313.6503	6.171641
68.53756	3618.519	13.38362	322.872	6.28084
68.59155	3634.547	13.6386	332.2174	6.383169
68.64555	3651.081	13.88297	341.6806	6.478053
68.69953	3668.135	14.11897	351.2549	6.564967
68.75352	3685.725	14.35137	360.9329	6.643446
68.80752	3703.86	14.58641	370.707	6.713214
68.86151	3722.551	14.82841	380.5689	6.773978
68.9155	3741.802	15.08156	390.51	6.825613
68.96949	3761.614	15.35184	400.5208	6.868138
69.02348	3781.99	15.64688	410.5919	6.901571
69.07748	3802.939	15.97149	420.7127	6.926013
69.13147	3824.467	16.32689	430.8728	6.941692
69.18546	3846.583	16.71361	441.0608	6.948814
69.23945	3869.301	17.13106	451.2651	6.947693
69.29344	3892.637	17.58358	461.4738	6.9387
69.34743	3916.607	18.07597	471.6741	6.922178
69.40143	3941.228	18.6123	481.8534	6.89844
69.45542	3966.521	19.19118	491.998	6.867808
69.50941	3992.504	19.80574	502.0945	6.830513
69.5634	4019.197	20.44545	512.1285	6.786804
69.61739	4046.623	21.10023	522.0858	6.736824
69.67139	4074.805	21.76213	531.9511	6.680619
69.72538	4103.76	22.42647	541.7093	6.618318
69.77937	4133.501	23.08482	551.3447	6.549757
69.83336	4164.043	23.72894	560.8411	6.474985
69.88735	4195.402	24.35906	570.1821	6.393753
69.94135	4227.591	24.97137	579.3507	6.305936
69.99534	4260.618	25.55923	588.3295	6.211178
70.04932	4294.485	26.12042	597.1008	6.10929
70.10332	4329.191	26.65462	605.6464	5.999907
70.15731	4364.719	27.15845	613.9481	5.882847
70.2113	4401.042	27.62759	621.9872	5.757834
70.2653	4438.123	28.0596	629.7449	5.624737
70.31928	4475.919	28.4506	637.2022	5.483329
70.37328	4514.375	28.79682	644.3404	5.333768
70.42727	4553.43	29.0982	651.1405	5.176044
70.48126	4593.03	29.35586	657.5845	5.010688
70.53526	4633.125	29.57252	663.6541	4.837924
70.58924	4673.671	29.74824	669.3319	4.658589
70.64323	4714.627	29.88283	674.6008	4.473467
70.69723	4755.954	29.98253	679.4448	4.283715
70.75122	4797.62	30.06109	683.8486	4.090886
70.80521	4839.607	30.13381	687.7979	3.896873
70.85921	4881.9	30.21439	691.2797	3.704156
70.91319	4924.487	30.31193	694.282	3.515608
70.96719	4967.362	30.43118	696.7938	3.334792
71.02118	5010.512	30.56648	698.806	3.165922
71.07517	5053.917	30.71065	700.3105	3.013759
71.12917	5097.556	30.86656	701.3007	2.883671
71.18315	5141.405	31.03632	701.7723	2.780796
71.23714	5185.436	31.22196	701.7216	2.709848
71.29114	5229.613	31.41566	701.1465	2.674981
71.34513	5273.902	31.61164	700.047	2.677916
71.39912	5318.272	31.80282	698.4244	2.718251
71.45311	5362.69	31.98283	696.2813	2.793902
71.5071	5407.124	32.14437	693.6225	2.9001
71.5611	5451.549	32.28335	690.4536	3.032172
71.61509	5495.94	32.39889	686.782	3.184449
71.66908	5540.267	32.49673	682.6156	3.352651
71.72307	5584.488	32.58221	677.9645	3.532043
71.77706	5628.557	32.65469	672.8392	3.719169
71.83105	5672.413	32.71538	667.2522	3.910239
71.88505	5715.988	32.7619	661.2162	4.103111
71.93904	5759.203	32.78416	654.7454	4.295482
71.99303	5801.97	32.77634	647.8544	4.486258
72.04702	5844.193	32.73081	640.5587	4.673827
72.10101	5885.772	32.63668	632.8746	4.857416
72.15501	5926.604	32.4782	624.8193	5.035704
72.209	5966.602	32.24354	616.4097	5.208286
72.26299	6005.688	31.92892	607.6636	5.374509
72.31698	6043.796	31.53783	598.5987	5.534321
72.37097	6080.869	31.07698	589.2333	5.687317
72.42496	6116.863	30.55725	579.5853	5.833391
72.47896	6151.747	29.99376	569.6735	5.972185
72.53294	6185.505	29.40673	559.5158	6.103702
72.58694	6218.128	28.811	549.1308	6.227884
72.64093	6249.614	28.21486	538.5367	6.344895
72.69492	6279.961	27.62588	527.752	6.454696
72.74892	6309.182	27.05125	516.7949	6.557202
72.8029	6337.28	26.49978	505.6841	6.652475
72.8569	6364.266	25.98151	494.4381	6.740367
72.91089	6390.15	25.50934	483.0756	6.820846
72.96488	6414.944	25.08664	471.6152	6.893839
73.01888	6438.656	24.70255	460.0757	6.959172
73.07286	6461.305	24.33836	448.476	7.016637
73.12685	6482.919	23.97359	436.835	7.065987
73.18085	6503.54	23.5925	425.1717	7.106928
73.23484	6523.211	23.18076	413.5049	7.139079
73.28883	6541.982	22.73428	401.8538	7.162154
73.34283	6559.901	22.26077	390.237	7.17564
73.39681	6577.015	21.77438	378.6733	7.179228
73.45081	6593.369	21.28337	367.1811	7.172498
73.5048	6609.004	20.7907	355.7782	7.155293
73.55879	6623.963	20.29498	344.4821	7.127317
73.61279	6638.281	19.79917	333.31	7.088502
73.66677	6651.992	19.31181	322.2781	7.038679
73.72076	6665.126	18.84765	311.402	6.978037
73.77476	6677.712	18.41881	300.6966	6.906678
73.82875	6689.775	18.0305	290.1756	6.825141
73.88274	6701.341	17.67772	279.852	6.733774
73.93673	6712.435	17.34855	269.7377	6.633318
73.99072	6723.082	17.02875	259.8438	6.524224
74.04472	6733.307	16.7011	250.1798	6.407476
74.09871	6743.126	16.3467	240.7545	6.283901
74.1527	6752.554	15.95612	231.5751	6.154755
74.20669	6761.604	15.5352	222.6478	6.021041
74.26068	6770.282	15.09824	213.9775	5.883935
74.31467	6778.6	14.6657	205.5678	5.744392
74.36867	6786.571	14.25743	197.4212	5.603583
74.42266	6794.213	13.88715	189.5387	5.462465
74.47665	6801.543	13.56943	181.9201	5.322153
74.53064	6808.578	13.31837	174.5639	5.183411
74.58463	6815.333	13.14176	167.4677	5.047058
74.63863	6821.824	13.04271	160.628	4.913589
74.69262	6828.064	13.01818	154.0402	4.783595
74.7466	6834.063	13.05638	147.6987	4.657452
74.8006	6839.82	13.13301	141.5974	4.535412
74.85459	6845.343	13.2244	135.7291	4.41781
74.90858	6850.645	13.31472	130.0863	4.304779
74.96258	6855.736	13.38865	124.661	4.196217
75.01656	6860.621	13.43442	119.4449	4.092224
75.07056	6865.306	13.45063	114.4292	3.992717
75.12455	6869.796	13.436	109.6054	3.897526
75.17854	6874.097	13.3901	104.9647	3.80656
75.23254	6878.211	13.3203	100.4984	3.719559
75.28652	6882.148	13.23894	96.19814	3.636359
75.34052	6885.92	13.16377	92.05587	3.556691
75.39451	6889.545	13.11565	88.06374	3.48042
75.4485	6893.04	13.10839	84.21429	3.407357
75.50249	6896.42	13.14777	80.50037	3.337433
75.55648	6899.693	13.23257	76.91528	3.270502
75.61047	6902.865	13.35244	73.45275	3.206507
75.66447	6905.943	13.49275	70.10694	3.145347
75.71846	6908.932	13.63588	66.87231	3.087045
75.77245	6911.839	13.76399	63.74376	3.031599
75.82645	6914.672	13.86287	60.71644	2.979125
75.88043	6917.438	13.92921	57.78586	2.929668
75.93443	6920.135	13.96191	54.94776	2.883336
75.98842	6922.763	13.96469	52.19814	2.840173
76.04241	6925.312	13.93583	49.53314	2.800255
76.09641	6927.772	13.87143	46.94909	2.763611
76.15039	6930.139	13.76593	44.44245	2.730283
76.20438	6932.409	13.61165	42.00986	2.700229
76.25838	6934.572	13.41022	39.64808	2.673378
76.31237	6936.62	13.17294	37.35401	2.649532
76.36636	6938.543	12.91719	35.12465	2.628414
76.42035	6940.335	12.66445	32.95716	2.609565
76.47434	6941.989	12.42558	30.84879	2.592414
76.52834	6943.5	12.20289	28.79702	2.576187
76.58233	6944.872	11.98815	26.79943	2.559993
76.63632	6946.116	11.76824	24.85381	2.542772
76.69031	6947.241	11.53428	22.95804	2.523462
76.7443	6948.252	11.28474	21.11011	2.500961
76.79829	6949.147	11.02306	19.30813	2.474187
76.85229	6949.917	10.76052	17.55022	2.442211
76.90628	6950.551	10.50441	15.83458	2.404216
76.96027	6951.03	10.25427	14.1595	2.359517
77.01426	6951.353	10.00906	12.52328	2.307674
77.06825	6951.522	9.770288	10.9243	2.2484
77.12225	6951.542	9.54601	9.361037	2.181562
77.17624	6951.418	9.350464	7.832005	2.107265
77.23022	6951.158	9.201694	6.33588	2.025704
77.28422	6950.774	9.114717	4.871439	1.93725
77.33821	6950.282	9.103993	3.437676	1.842297
77.3922	6949.703	9.175438	2.033754	1.741381
77.4462	6949.055	9.328027	0.6590896	1.635029
77.50018	6948.356	9.558869	-0.6867116	1.523866
77.55418	6947.617	9.863647	-2.00375	1.40844
77.60817	6946.846	10.23969	-3.291917	1.289337
77.66216	6946.051	10.68194	-4.550848	1.167045
77.71616	6945.232	11.17776	-5.780033	1.042119
77.77014	6944.382	11.7036	-6.978777	0.915087
77.82413	6943.499	12.23215	-8.146295	0.7865813
77.87813	6942.582	12.73741	-9.281659	0.6572062
77.93212	6941.639	13.19972	-10.38391	0.5276479
77.98611	6940.676	13.60918	-11.45203	0.3985992
78.0401	6939.695	13.97211	-12.48502	0.2709961
78.09409	6938.69	14.29971	-13.48192	0.1466629
78.14809	6937.662	14.6022	-14.44191	0.04343906
78.20208	6936.619	14.88808	-15.36431	0.1127036
78.25607	6935.564	15.15164	-16.24867	0.2268975
78.31007	6934.499	15.38424	-17.09472	0.3394548
78.36405	6933.422	15.58266	-17.90242	0.4477561
78.41805	6932.336	15.75037	-18.67191	0.5509331
78.47204	6931.235	15.8976	-19.40342	0.6484963
78.52603	6930.109	16.02968	-20.09733	0.7400945
78.58002	6928.943	16.14597	-20.75407	0.825554
78.63401	6927.725	16.23577	-21.37411	0.9048278
78.688	6926.449	16.28271	-21.95799	0.9779093
78.742	6925.116	16.27422	-22.50633	1.044881
78.79599	6923.731	16.20687	-23.01977	1.105854
78.84998	6922.3	16.08347	-23.49903	1.160924
78.90397	6920.828	15.90442	-23.94486	1.210194
78.95796	6919.32	15.6699	-24.35806	1.253782
79.01196	6917.786	15.37625	-24.73952	1.291772
79.06595	6916.228	15.02321	-25.09015	1.324265
79.11994	6914.645	14.61231	-25.41094	1.351385
79.17393	6913.033	14.14951	-25.70291	1.373265
79.22792	6911.385	13.64554	-25.96704	1.390046
79.28191	6909.695	13.11955	-26.20433	1.401868
79.33591	6907.957	12.59426	-26.4157	1.408893
79.3899	6906.166	12.08877	-26.60197	1.411258
79.44389	6904.322	11.61729	-26.76388	1.409119
79.49788	6902.428	11.18599	-26.90205	1.402621
79.55187	6900.492	10.79908	-27.01701	1.39195
79.60587	6898.523	10.46132	-27.10921	1.377326
79.65986	6896.541	10.18091	-27.17899	1.359022
79.71384	6894.563	9.969793	-27.22663	1.337306
79.76784	6892.608	9.836994	-27.25235	1.312446
79.82183	6890.688	9.780816	-27.2563	1.284679
79.87582	6888.813	9.78671	-27.23857	1.254239
79.92982	6886.999	9.825338	-27.19924	1.221325
79.9838	6885.265	9.868442	-27.13831	1.186141
80.0378	6883.609	9.895868	-27.05577	1.148837
80.09179	6882.02	9.90237	-26.95162	1.109555
80.14578	6880.482	9.906118	-26.82593	1.06839
80.19978	6878.975	9.941669	-26.67887	1.025475
80.25376	6877.474	10.03795	-26.51076	0.9809585
80.30775	6875.96	10.20905	-26.32207	0.9350902
80.36175	6874.423	10.45535	-26.11349	0.888191
80.41574	6872.868	10.76918	-25.88592	0.8407574
80.46973	6871.302	11.14042	-25.64044	0.7935292
80.52372	6869.738	11.55995	-25.37834	0.7475208
80.57771	6868.199	12.01834	-25.10105	0.7041492
80.63171	6866.708	12.49855	-24.81011	0.665257
80.6857	6865.282	12.97835	-24.50724	0.6330342
80.73969	6863.922	13.42873	-24.19423	0.6099212
80.79369	6862.61	13.82644	-23.87298	0.598267
80.84767	6861.321	14.15619	-23.54545	0.5998276
80.90166	6860.036	14.41444	-23.21361	0.615348
80.95566	6858.737	14.60646	-22.8795	0.6443489
81.00965	6857.417	14.74007	-22.54513	0.6853101
81.06364	6856.074	14.82224	-22.21255	0.736077
81.11763	6854.714	14.86097	-21.88377	0.7942945
81.17162	6853.354	14.86708	-21.56078	0.8576967
81.22562	6852.007	14.85247	-21.24553	0.924238
81.27961	6850.685	14.83294	-20.93989	0.9921458
81.3336	6849.39	14.82302	-20.64568	1.059904
81.38759	6848.129	14.83056	-20.36459	1.12624
81.44158	6846.908	14.85102	-20.09822	1.1901
81.49557	6845.734	14.8716	-19.84805	1.250599
81.54957	6844.617	14.86898	-19.61549	1.307018
81.60356	6843.554	14.81263	-19.40183	1.358739
81.65755	6842.549	14.67723	-19.2083	1.405281
81.71154	6841.608	14.45441	-19.03601	1.446245
81.76553	6840.74	14.14445	-18.88602	1.481351
81.81953	6839.942	13.76331	-18.75926	1.510375
81.87352	6839.21	13.33134	-18.65665	1.533215
81.92751	6838.544	12.86465	-18.57899	1.549827
81.9815	6837.943	12.37441	-18.52709	1.560279
82.03549	6837.412	11.86989	-18.50169	1.564653
82.08949	6836.956	11.36524	-18.5035	1.56311
82.14348	6836.573	10.88849	-18.53321	1.555792
82.19746	6836.255	10.47208	-18.59149	1.542922
82.25146	6835.988	10.13271	-18.67901	1.524706
82.30545	6835.759	9.873542	-18.79647	1.501431
82.35944	6835.543	9.685221	-18.94453	1.473361
82.41344	6835.31	9.552654	-19.12391	1.440819
82.46742	6835.027	9.459604	-19.33537	1.404186
82.52142	6834.678	9.393328	-19.57969	1.363797
82.57541	6834.26	9.349616	-19.85769	1.320061
82.6294	6833.781	9.325758	-20.17029	1.27346
82.6834	6833.255	9.317028	-20.51832	1.224439
82.73738	6832.691	9.318048	-20.90266	1.173473
82.79137	6832.103	9.322395	-21.32418	1.121046
82.84537	6831.49	9.334892	-21.78371	1.067546
82.89936	6830.843	9.378114	-22.2821	1.013405
82.95335	6830.146	9.480068	-22.82017	0.9589645
83.00735	6829.382	9.660976	-23.39879	0.904593
83.06133	6828.536	9.925173	-24.01874	0.8505519
83.11533	6827.593	10.2625	-24.6808	0.7971203
83.16932	6826.548	10.65042	-25.38564	0.7445047
83.22331	6825.408	11.06651	-26.13387	0.6929983
83.27731	6824.182	11.49096	-26.92601	0.642882
83.33129	6822.878	11.90953	-27.76245	0.5945685
83.38528	6821.504	12.31437	-28.64339	0.5484934
83.43928	6820.079	12.70533	-29.56896	0.5052284
83.49327	6818.62	13.08755	-30.53906	0.4653663
83.54726	6817.133	13.46405	-31.55351	0.4295988
83.60125	6815.615	13.83597	-32.61195	0.3985324
83.65524	6814.068	14.2057	-33.7139	0.3726499
83.70924	6812.493	14.5703	-34.85874	0.3520647
83.76323	6810.881	14.92757	-36.0457	0.3365148
83.81722	6809.224	15.27473	-37.2738	0.3252642
83.87121	6807.512	15.60218	-38.54197	0.3172831
83.9252	6805.741	15.89441	-39.84894	0.3112877
83.97919	6803.912	16.13037	-41.19338	0.3059967
84.03319	6802.03	16.29091	-42.57384	0.3001684
84.08718	6800.097	16.37119	-43.9888	0.2927626
84.14117	6798.104	16.386	-45.43662	0.2828987
84.19516	6796.038	16.35225	-46.91566	0.2698855
84.24915	6793.888	16.28482	-48.42418	0.2531668
84.30315	6791.651	16.19252	-49.96048	0.232357
84.35714	6789.321	16.08665	-51.52275	0.2072038
84.41113	6786.892	15.97625	-53.10917	0.1776131
84.46512	6784.354	15.86206	-54.71789	0.1436315
84.51911	6781.706	15.74149	-56.347	0.1055627
84.5731	6778.944	15.60925	-57.99458	0.06450192
84.6271	6776.063	15.4579	-59.65869	0.02901935
84.68108	6773.059	15.28236	-61.3373	0.0492202
84.73508	6769.937	15.07039	-63.02831	0.1009944
84.78907	6766.702	14.80724	-64.72961	0.159741
84.84306	6763.362	14.48695	-66.439	0.2230196
84.89706	6759.922	14.11946	-68.1543	0.2902066
84.95104	6756.39	13.72267	-69.87329	0.3609642
85.00504	6752.771	13.31879	-71.59381	0.4350551
85.05903	6749.058	12.92578	-73.31375	0.5122852
85.11302	6745.235	12.55753	-75.03104	0.5924742
85.16702	6741.29	12.22441	-76.74368	0.6754442
85.221	6737.218	11.93428	-78.44977	0.760996
85.27499	6733.025	11.68995	-80.14742	0.8489005
85.32899	6728.715	11.48851	-81.83488	0.9389319
85.38298	6724.294	11.32075	-83.51038	1.030844
85.43697	6719.77	11.1748	-85.17226	1.124396
85.49097	6715.141	11.03436	-86.81891	1.219305
85.54495	6710.396	10.88107	-88.44884	1.315286
85.59895	6705.528	10.7026	-90.06064	1.41203
85.65294	6700.532	10.50206	-91.65298	1.509184
85.70693	6695.41	10.29414	-93.22468	1.606397
85.76093	6690.156	10.10083	-94.7746	1.703307
85.81491	6684.766	9.941565	-96.30175	1.799588
85.8689	6679.226	9.832539	-97.80512	1.894931
85.9229	6673.532	9.785948	-99.2838	1.989056
85.97689	6667.688	9.806443	-100.7369	2.081679
86.03088	6661.705	9.895462	-102.1636	2.172545
86.08487	6655.593	10.05151	-103.5633	2.261387
86.13886	6649.366	10.26908	-104.9353	2.347897
86.19286	6643.028	10.53456	-106.279	2.431758
86.24685	6636.584	10.82833	-107.5941	2.512568
86.30084	6630.026	11.13249	-108.8801	2.589853
86.35483	6623.357	11.43522	-110.1368	2.663145
86.40882	6616.58	11.72939	-111.3639	2.731938
86.46281	6609.709	12.01016	-112.5614	2.795716
86.51681	6602.751	12.27043	-113.7292	2.854063
86.5708	6595.72	12.50426	-114.8675	2.906585
86.62479	6588.622	12.71501	-115.9762	2.952968
86.67878	6581.477	12.91003	-117.0555	2.993032
86.73277	6574.301	13.09475	-118.1055	3.026666
86.78677	6567.112	13.27154	-119.1262	3.053818
86.84076	6559.922	13.44344	-120.1177	3.074512
86.89474	6552.746	13.60991	-121.0801	3.088758
86.94874	6545.591	13.76986	-122.0136	3.096623
87.00273	6538.47	13.91605	-122.918	3.098144
87.05672	6531.389	14.03889	-123.7934	3.093443
87.11072	6524.343	14.12998	-124.6398	3.082664
87.1647	6517.318	14.18429	-125.457	3.066044
87.2187	6510.298	14.19955	-126.2452	3.043818
87.27269	6503.27	14.17483	-127.0044	3.016307
87.32668	6496.221	14.11213	-127.7347	2.983821
87.38068	6489.149	14.01474	-128.4362	2.946741
87.43466	6482.063	13.89049	-129.1092	2.905413
87.48866	6474.976	13.751	-129.754	2.860183
87.54265	6467.899	13.60917	-130.3708	2.811326
87.59664	6460.851	13.47864	-130.9604	2.759114
87.65063	6453.843	13.37107	-131.5231	2.703735
87.70462	6446.875	13.29361	-132.0597	2.64535
87.75861	6439.942	13.24441	-132.5711	2.584039
87.81261	6433.022	13.21419	-133.0582	2.519903
87.8666	6426.095	13.2008	-133.5222	2.452966
87.92059	6419.144	13.20555	-133.9641	2.383336
87.97459	6412.159	13.22831	-134.3852	2.311074
88.02857	6405.134	13.26781	-134.7867	2.236341
88.08257	6398.062	13.32442	-135.1697	2.159368
88.13656	6390.932	13.39497	-135.5354	2.0804
88.19055	6383.748	13.47207	-135.8848	1.999746
88.24454	6376.508	13.54569	-136.2191	1.917723
88.29853	6369.207	13.6096	-136.5392	1.834619
88.35252	6361.847	13.66489	-136.846	1.750711
88.40652	6354.439	13.71828	-137.1405	1.666238
88.46051	6346.996	13.77611	-137.4233	1.58143
88.5145	6339.527	13.84167	-137.6953	1.496518
88.56849	6332.034	13.91631	-137.9569	1.411796
88.62248	6324.517	14.00067	-138.2087	1.327619
88.67648	6316.97	14.09658	-138.4509	1.244483
88.73047	6309.387	14.19695	-138.6836	1.163066
88.78446	6301.763	14.29258	-138.9068	1.08426
88.83845	6294.1	14.37479	-139.1203	1.009186
88.89244	6286.401	14.43789	-139.3241	0.939239
88.94643	6278.666	14.48022	-139.5179	0.8761197
89.00043	6270.892	14.50802	-139.7012	0.8217428
89.05442	6263.077	14.53423	-139.8738	0.7781094
89.10841	6255.229	14.57413	-140.0352	0.74707
89.1624	6247.356	14.64099	-140.1848	0.7298979
89.21639	6239.477	14.74561	-140.3222	0.7269307
89.27039	6231.603	14.89333	-140.4469	0.737414
89.32438	6223.741	15.08099	-140.5584	0.7595925
89.37836	6215.886	15.29622	-140.6564	0.7910407
89.43236	6208.032	15.52301	-140.7405	0.8291101
89.48635	6200.169	15.74559	-140.8103	0.8712254
89.54034	6192.308	15.9554	-140.8656	0.9151136
89.59434	6184.452	16.14646	-140.9061	0.9588313
89.64832	6176.61	16.31575	-140.932	1.000782
89.70232	6168.787	16.46061	-140.9433	1.039687
89.75631	6160.982	16.5754	-140.9404	1.07461
89.8103	6153.183	16.66035	-140.9239	1.104878
89.8643	6145.38	16.72262	-140.8944	1.130152
89.91828	6137.567	16.77498	-140.853	1.150372
89.97227	6129.75	16.82301	-140.8007	1.165736
90.02627	6121.935	16.86227	-140.7386	1.17668
90.08026	6114.129	16.88484	-140.6682	1.183786
90.13425	6106.334	16.88965	-140.5906	1.187754
90.18824	6098.554	16.87803	-140.5074	1.189296
90.24223	6090.783	16.84594	-140.42	1.189115
90.29623	6083.018	16.78792	-140.3297	1.187886
90.35022	6075.25	16.69954	-140.238	1.186193
90.40421	6067.481	16.57823	-140.1462	1.184565
90.45821	6059.71	16.42695	-140.0556	1.183429
90.51219	6051.938	16.24888	-139.9673	1.183136
90.56618	6044.167	16.04998	-139.8825	1.183926
90.62018	6036.406	15.83941	-139.8019	1.185998
90.67417	6028.664	15.62909	-139.7263	1.189458
90.72816	6020.949	15.42971	-139.6561	1.194355
90.78215	6013.269	15.25106	-139.5917	1.200634
90.83614	6005.629	15.09698	-139.5331	1.20824
90.89014	5998.032	14.96241	-139.4805	1.216983
90.94413	5990.479	14.8355	-139.4337	1.22663
90.99812	5982.979	14.70661	-139.3925	1.236795
91.05211	5975.539	14.57115	-139.3567	1.247085
91.1061	5968.172	14.42561	-139.326	1.257004
91.1601	5960.885	14.26291	-139.3001	1.266111
91.21409	5953.688	14.07825	-139.2785	1.27391
91.26808	5946.584	13.87372	-139.261	1.279976
91.32207	5939.57	13.65804	-139.2471	1.283895
91.37606	5932.623	13.43483	-139.2365	1.285394
91.43005	5925.717	13.20155	-139.2287	1.28426
91.48405	5918.829	12.95897	-139.2235	1.280447
91.53804	5911.951	12.714	-139.2202	1.273931
91.59203	5905.077	12.47607	-139.2186	1.264817
91.64602	5898.201	12.25041	-139.2183	1.253254
91.70001	5891.318	12.03649	-139.2189	1.239511
91.75401	5884.415	11.83271	-139.2201	1.223876
91.808	5877.481	11.63393	-139.2217	1.206695
91.86198	5870.508	11.43863	-139.2236	1.188338
91.91598	5863.486	11.25377	-139.2255	1.169226
91.96997	5856.41	11.08505	-139.2276	1.149772
92.02396	5849.271	10.934	-139.2301	1.130437
92.07796	5842.063	10.81016	-139.2331	1.111675
92.13194	5834.771	10.73162	-139.2371	1.093949
92.18594	5827.382	10.70888	-139.2425	1.077724
92.23993	5819.891	10.73922	-139.2496	1.063405
92.29392	5812.289	10.81122	-139.259	1.051381
92.34792	5804.572	10.91149	-139.2711	1.042002
92.4019	5796.738	11.0338	-139.2861	1.035601
92.45589	5788.799	11.17465	-139.2889	1.062985
92.50989	5780.775	11.32927	-139.2841	1.097556
92.56388	5772.687	11.48861	-139.275	1.137181
92.61787	5764.557	11.64265	-139.2647	1.18005
92.67186	5756.407	11.78614	-139.255	1.224886
92.72585	5748.27	11.91601	-139.2471	1.270877
92.77985	5740.173	12.03507	-139.2415	1.317591
92.83384	5732.134	12.14486	-139.2383	1.364813
92.88783	5724.146	12.24774	-139.2373	1.412455
92.94183	5716.2	12.34845	-139.2384	1.460523
92.99581	5708.276	12.45219	-139.2412	1.509051
93.0498	5700.367	12.56063	-139.2454	1.558088
93.1038	5692.462	12.66714	-139.2507	1.607683
93.15779	5684.564	12.75903	-139.2567	1.657903
93.21178	5676.675	12.82797	-139.2631	1.708784
93.26577	5668.813	12.87748	-139.2697	1.760388
93.31976	5660.986	12.91278	-139.2761	1.812734
93.37376	5653.214	12.93558	-139.2822	1.865881
93.42775	5645.505	12.94534	-139.2877	1.919874
93.48174	5637.868	12.94645	-139.2924	1.974727
93.53573	5630.304	12.94198	-139.2961	2.030506
93.58972	5622.799	12.92786	-139.2986	2.087231
93.64371	5615.343	12.89893	-139.2999	2.144939
93.69771	5607.921	12.85629	-139.2997	2.203666
93.7517	5600.514	12.80805	-139.2979	2.263448
93.80569	5593.115	12.76175	-139.2943	2.324316
93.85968	5585.711	12.71704	-139.289	2.386285
93.91367	5578.299	12.66745	-139.2817	2.449391
93.96767	5570.871	12.59816	-139.2724	2.513655
94.02166	5563.425	12.49682	-139.2611	2.579084
94.07565	5555.969	12.29167	-139.2475	2.645697
94.12964	5548.557	12.07706	-139.2318	2.713492
94.18363	5541.182	11.85769	-139.2138	2.78249
94.23763	5533.83	11.63669	-139.1936	2.852666
94.29162	5526.492	11.41555	-139.171	2.924026
94.3456	5519.162	11.19528	-139.1461	2.996562
94.3996	5511.835	10.97645	-139.1189	3.07026
94.45359	5504.509	10.76005	-139.0894	3.145113
94.50758	5497.18	10.54704	-139.0575	3.221098
94.56158	5489.849	10.33823	-139.0234	3.298195
94.61556	5482.515	10.13515	-138.987	3.376386
94.66956	5475.179	9.939551	-138.9484	3.455639
94.72355	5467.841	9.752486	-138.9076	3.535937
94.77754	5460.502	9.575534	-138.8647	3.617246
94.83154	5453.162	9.409034	-138.8196	3.699543
94.88552	5445.821	9.254056	-138.7725	3.782799
94.93951	5438.481	9.112132	-138.7233	3.86699
94.99351	5431.142	8.98448	-138.6723	3.952057
