T[Â°C]	330nm [counts / mm]	S.D.	First derivative	S.D. of first derivative
19.99899	7848.356	18.19976	-112.7658	6.149986
20.05298	7842.22	17.75502	-112.6555	6.034537
20.10697	7836.086	17.31939	-112.5451	5.918736
20.16097	7829.953	16.89293	-112.4348	5.802578
20.21496	7823.819	16.47634	-112.3246	5.686063
20.26895	7817.687	16.06944	-112.2144	5.569201
20.32294	7811.553	15.67294	-112.1042	5.451997
20.37693	7805.42	15.28733	-111.9941	5.334469
20.43093	7799.288	14.91458	-111.8842	5.21663
20.48492	7793.156	14.5564	-111.7743	5.0985
20.53891	7787.025	14.21518	-111.6646	4.980101
20.5929	7780.897	13.89205	-111.555	4.861463
20.64689	7774.773	13.58864	-111.4455	4.742613
20.70088	7768.656	13.30567	-111.3362	4.62359
20.75488	7762.546	13.04274	-111.2271	4.504428
20.80887	7756.448	12.79919	-111.1182	4.385162
20.86286	7750.365	12.5738	-111.0095	4.265837
20.91685	7744.306	12.36658	-110.901	4.1465
20.97084	7738.267	12.18036	-110.7928	4.027195
21.02483	7732.207	12.27267	-110.6847	3.907978
21.07882	7726.144	12.43087	-110.5769	3.788899
21.13282	7720.086	12.65196	-110.4693	3.670007
21.18681	7714.038	12.93142	-110.362	3.551369
21.2408	7707.999	13.27004	-110.2548	3.433037
21.29479	7701.972	13.66927	-110.1479	3.315063
21.34878	7695.963	14.12622	-110.0412	3.197516
21.40278	7689.981	14.62979	-109.9347	3.080441
21.45677	7684.036	15.16422	-109.8284	2.9639
21.51076	7678.125	15.70936	-109.7222	2.847942
21.56475	7672.243	16.24259	-109.6161	2.73262
21.61874	7666.385	16.74888	-109.5101	2.617977
21.67274	7660.538	17.22234	-109.4042	2.504048
21.72673	7654.691	17.66011	-109.2983	2.390867
21.78072	7648.838	18.05864	-109.1924	2.278459
21.83471	7642.979	18.41074	-109.0865	2.16682
21.8887	7637.118	18.70526	-108.9804	2.055952
21.94269	7631.266	18.93706	-108.8741	1.945826
21.99669	7625.429	19.11175	-108.7675	1.83639
22.05068	7619.613	19.23611	-108.6607	1.727563
22.10467	7613.819	19.32094	-108.5534	1.619225
22.15866	7608.042	19.37494	-108.4455	1.511193
22.21265	7602.285	19.39215	-108.337	1.403219
22.26664	7596.548	19.35425	-108.2277	1.294971
22.32063	7590.831	19.25131	-108.1175	1.186021
22.37463	7585.127	19.09102	-108.0062	1.075809
22.42862	7579.428	18.89065	-107.8936	0.9636496
22.48261	7573.721	18.67183	-107.7796	0.8488443
22.5366	7567.992	18.45912	-107.6642	0.7309067
22.59059	7562.234	18.27771	-107.5477	0.610375
22.64459	7556.44	18.14638	-107.4389	0.5258206
22.69858	7550.609	18.07659	-107.3311	0.4556157
22.75257	7544.744	18.06993	-107.2246	0.405326
22.80656	7538.852	18.1175	-107.1196	0.380455
22.86055	7532.938	18.19941	-107.0162	0.3832737
22.91455	7527.018	18.29176	-106.9146	0.4105082
22.96854	7521.114	18.37157	-106.8151	0.4552639
23.02253	7515.244	18.42799	-106.7178	0.5106074
23.07652	7509.416	18.45151	-106.6228	0.5713381
23.13051	7503.629	18.42938	-106.5304	0.6340013
23.1845	7497.878	18.35509	-106.4407	0.6963824
23.23849	7492.154	18.23063	-106.3536	0.7570791
23.29249	7486.449	18.06355	-106.2693	0.8151913
23.34648	7480.749	17.86745	-106.1876	0.8701653
23.40047	7475.04	17.66232	-106.1085	0.9216515
23.45446	7469.312	17.4617	-106.0318	0.9694399
23.50845	7463.558	17.27166	-105.9575	1.013367
23.56244	7457.788	17.09071	-105.8854	1.053328
23.61644	7452.011	16.9183	-105.8153	1.089263
23.67043	7446.236	16.75326	-105.7469	1.121131
23.72442	7440.48	16.58974	-105.6801	1.148892
23.77841	7434.754	16.42072	-105.6144	1.172506
23.8324	7429.071	16.23711	-105.5498	1.191939
23.8864	7423.432	16.02097	-105.4858	1.207115
23.94039	7417.829	15.7593	-105.4222	1.217951
23.99438	7412.253	15.45377	-105.3587	1.224327
24.04837	7406.692	15.11864	-105.2953	1.22616
24.10236	7401.128	14.77795	-105.2316	1.223394
24.15635	7395.551	14.45437	-105.1674	1.216053
24.21035	7389.955	14.16367	-105.1027	1.204245
24.26434	7384.342	13.91665	-105.0373	1.18813
24.31833	7378.718	13.71946	-104.9712	1.167892
24.37232	7373.081	13.57412	-104.9044	1.143726
24.42631	7367.434	13.47671	-104.8368	1.115868
24.4803	7361.786	13.42045	-104.7686	1.084602
24.5343	7356.142	13.39267	-104.6999	1.050316
24.58829	7350.506	13.38341	-104.6306	1.013516
24.64228	7344.88	13.39128	-104.5608	0.9748863
24.69627	7339.262	13.42303	-104.4909	0.9352759
24.75026	7333.643	13.48736	-104.4208	0.8957134
24.80425	7328.01	13.58537	-104.3508	0.8574192
24.85825	7322.363	13.71704	-104.2811	0.8217776
24.91224	7316.712	13.88191	-104.2118	0.7903237
24.96623	7311.069	14.07766	-104.143	0.7646185
25.02022	7305.443	14.30572	-104.0749	0.7460287
25.07421	7299.836	14.57234	-104.0075	0.7355263
25.12821	7294.242	14.87865	-103.9409	0.733474
25.1822	7288.652	15.21666	-103.8751	0.7395093
25.23619	7283.062	15.56633	-103.81	0.7526242
25.29018	7277.47	15.90338	-103.7457	0.771331
25.34417	7271.875	16.20773	-103.6821	0.7939194
25.39816	7266.273	16.46158	-103.6191	0.8187183
25.45216	7260.656	16.65186	-103.5567	0.8442577
25.50615	7255.017	16.76891	-103.4947	0.8693238
25.56014	7249.356	16.81238	-103.4329	0.8929716
25.61413	7243.669	16.79775	-103.3713	0.9144973
25.66812	7237.959	16.74034	-103.3095	0.9333891
25.72211	7232.237	16.65322	-103.2473	0.9493008
25.77611	7226.523	16.54652	-103.1845	0.9620338
25.8301	7220.839	16.4218	-103.1208	0.9714741
25.88409	7215.2	16.26827	-103.0562	0.9776119
25.93808	7209.614	16.07503	-102.9903	0.9805263
25.99207	7204.08	15.84257	-102.9231	0.9803554
26.04606	7198.586	15.58049	-102.8544	0.977298
26.10006	7193.119	15.30198	-102.7839	0.9715579
26.15405	7187.655	15.02303	-102.7116	0.9633272
26.20804	7182.185	14.75457	-102.6371	0.9527606
26.26203	7176.7	14.5105	-102.5605	0.939981
26.31602	7171.197	14.30575	-102.4815	0.9250848
26.37002	7165.668	14.14829	-102.4	0.9081971
26.42401	7160.117	14.03995	-102.3162	0.8894668
26.478	7154.545	13.9739	-102.2299	0.869092
26.53199	7148.965	13.94327	-102.1412	0.8472917
26.58598	7143.392	13.94405	-102.0502	0.8242691
26.63997	7137.847	13.97623	-101.9572	0.8001865
26.69397	7132.338	14.03743	-101.8623	0.7751362
26.74796	7126.867	14.11945	-101.766	0.7491923
26.80195	7121.426	14.21632	-101.6684	0.7223598
26.85594	7116.005	14.32478	-101.57	0.6945999
26.90993	7110.593	14.44005	-101.4709	0.665843
26.96392	7105.174	14.54794	-101.3714	0.6360158
27.01792	7099.743	14.63754	-101.2718	0.6050525
27.07191	7094.296	14.70269	-101.172	0.5728917
27.1259	7088.827	14.73935	-101.0724	0.5394793
27.17989	7083.33	14.74092	-100.9729	0.5047901
27.23388	7077.801	14.70112	-100.8738	0.4688182
27.28787	7072.249	14.61349	-100.7751	0.4315854
27.34187	7066.688	14.47798	-100.6771	0.3931771
27.39586	7061.129	14.30088	-100.5801	0.3537683
27.44985	7055.586	14.08574	-100.4842	0.3136919
27.50384	7050.069	13.83016	-100.3899	0.2735245
27.55783	7044.587	13.53438	-100.2975	0.2341875
27.61183	7039.143	13.21191	-100.2072	0.1970692
27.66582	7033.735	12.89464	-100.1192	0.1642992
27.71981	7028.355	12.6171	-100.0338	0.1389095
27.7738	7022.991	12.40986	-99.95115	0.12452
27.82779	7017.632	12.29331	-99.87131	0.1231986
27.88178	7012.273	12.27178	-99.7944	0.1330586
27.93578	7006.914	12.33556	-99.72043	0.1494987
27.98977	7001.554	12.46643	-99.6494	0.1682609
28.04376	6996.2	12.64912	-99.58123	0.1864993
28.09775	6990.858	12.87227	-99.51585	0.2025026
28.15174	6985.529	13.12443	-99.45315	0.2152822
28.20573	6980.217	13.39525	-99.39304	0.2242609
28.25973	6974.928	13.68104	-99.33546	0.2291406
28.31372	6969.662	13.98225	-99.28037	0.2297729
28.36771	6964.414	14.29862	-99.22774	0.2261419
28.4217	6959.175	14.62751	-99.17751	0.218308
28.47569	6953.936	14.96335	-99.12961	0.2064054
28.52968	6948.687	15.29877	-99.08391	0.1906776
28.58368	6943.432	15.62731	-99.04031	0.1714695
28.63767	6938.178	15.9353	-98.99868	0.149249
28.69166	6932.923	16.21045	-98.95889	0.1246231
28.74565	6927.666	16.44056	-98.9208	0.09846946
28.79964	6922.403	16.61691	-98.88425	0.0723514
28.85364	6917.131	16.7337	-98.84901	0.05002375
28.90763	6911.846	16.7915	-98.81483	0.04155089
28.96162	6906.545	16.79461	-98.78139	0.05456888
29.01561	6901.232	16.7462	-98.74834	0.0785348
29.0696	6895.913	16.64552	-98.71531	0.1051009
29.12359	6890.592	16.48713	-98.68195	0.1312082
29.17759	6885.267	16.26553	-98.64794	0.1554557
29.23158	6879.935	15.98645	-98.61296	0.1769785
29.28557	6874.6	15.66447	-98.57674	0.1951918
29.33956	6869.27	15.31798	-98.53905	0.2097338
29.39355	6863.952	14.96509	-98.49976	0.2204773
29.44754	6858.65	14.61983	-98.45878	0.2275996
29.50154	6853.367	14.28142	-98.41611	0.2316637
29.55553	6848.101	13.93817	-98.37185	0.2336683
29.60952	6842.851	13.5847	-98.32609	0.2350793
29.66351	6837.614	13.22254	-98.27896	0.2377549
29.7175	6832.383	12.86321	-98.2306	0.2436645
29.77149	6827.146	12.52472	-98.18112	0.2544023
29.82549	6821.894	12.23066	-98.13064	0.2707717
29.87948	6816.62	12.0003	-98.07923	0.29257
29.93347	6811.316	11.84718	-98.02695	0.3186685
29.98746	6805.976	11.77941	-97.97383	0.3473991
30.04145	6800.593	11.80144	-97.91988	0.3768242
30.09545	6795.169	11.91387	-97.86509	0.4050463
30.14944	6789.712	12.10484	-97.80946	0.4303229
30.20343	6784.243	12.35434	-97.75298	0.4511733
30.25742	6778.783	12.63932	-97.69569	0.4663579
30.31141	6773.348	12.9392	-97.63763	0.4749213
30.3654	6767.943	13.23679	-97.57888	0.4761487
30.4194	6762.564	13.51813	-97.51957	0.4696332
30.47339	6757.2	13.77544	-97.45975	0.4553064
30.52738	6751.839	14.00763	-97.39954	0.4335456
30.58137	6746.474	14.21765	-97.33899	0.4052906
30.63536	6741.103	14.41515	-97.27818	0.3722124
30.68935	6735.725	14.60952	-97.21712	0.3370104
30.74335	6730.34	14.80363	-97.15578	0.3038301
30.79734	6724.95	14.99159	-97.09409	0.2786482
30.85133	6719.555	15.16657	-97.03194	0.2686195
30.90532	6714.159	15.32607	-96.96912	0.279089
30.95931	6708.772	15.46883	-96.90545	0.3101685
31.0133	6703.411	15.58965	-96.84073	0.3573205
31.0673	6698.098	15.67255	-96.77477	0.4148355
31.12129	6692.844	15.69682	-96.70744	0.4779142
31.17528	6687.648	15.64637	-96.63866	0.5429645
31.22927	6682.506	15.51235	-96.56834	0.6072723
31.28326	6677.412	15.29268	-96.49644	0.6686985
31.33726	6672.355	14.99488	-96.42295	0.725496
31.39125	6667.325	14.64048	-96.34789	0.7762004
31.44524	6662.314	14.25355	-96.27134	0.8196151
31.49923	6657.314	13.85765	-96.19341	0.8548216
31.55322	6652.32	13.47486	-96.11423	0.8811395
31.60721	6647.329	13.12555	-96.03404	0.8981693
31.66121	6642.336	12.82376	-95.95305	0.9057666
31.7152	6637.33	12.5794	-95.87154	0.9040197
31.76919	6632.304	12.3945	-95.78979	0.8932707
31.82318	6627.258	12.26158	-95.70817	0.8740884
31.87717	6622.199	12.16625	-95.62704	0.8472841
31.93116	6617.13	12.09826	-95.54679	0.8138757
31.98516	6612.056	12.05525	-95.46779	0.7750862
32.03915	6606.975	12.04688	-95.39041	0.7323188
32.09314	6601.881	12.08263	-95.31499	0.6870971
32.14713	6596.773	12.1716	-95.24184	0.6410038
32.20112	6591.649	12.3187	-95.17117	0.5956321
32.25512	6586.51	12.52868	-95.10317	0.5524912
32.3091	6581.359	12.80379	-95.03797	0.5129523
32.3631	6576.199	13.13809	-94.97564	0.4781571
32.41709	6571.035	13.51975	-94.91624	0.4488932
32.47108	6565.871	13.93569	-94.85974	0.4255435
32.52507	6560.704	14.37205	-94.80611	0.4080524
32.57906	6555.533	14.81264	-94.75523	0.3959507
32.63306	6550.358	15.24737	-94.70699	0.3884624
32.68705	6545.184	15.66373	-94.66119	0.384657
32.74104	6540.011	16.04835	-94.61761	0.3835817
32.79503	6534.842	16.38931	-94.57604	0.3843765
32.84902	6529.673	16.67583	-94.53616	0.3863014
32.90302	6524.5	16.89944	-94.49764	0.3887815
32.95701	6519.322	17.06093	-94.46013	0.3913968
33.011	6514.149	17.16371	-94.42326	0.3938325
33.06499	6508.993	17.21091	-94.38665	0.3958353
33.11898	6503.864	17.20657	-94.34996	0.3971557
33.17297	6498.767	17.15416	-94.31285	0.3975568
33.22697	6493.704	17.05771	-94.27499	0.3968247
33.28096	6488.681	16.91915	-94.23607	0.3947705
33.33495	6483.694	16.74171	-94.19579	0.3912596
33.38894	6478.737	16.52412	-94.15392	0.3862598
33.44293	6473.803	16.26224	-94.11024	0.3798523
33.49693	6468.875	15.95804	-94.06461	0.3722933
33.55091	6463.936	15.62355	-94.01691	0.364025
33.60491	6458.97	15.27358	-93.96707	0.3556777
33.6589	6453.968	14.92129	-93.91506	0.3481063
33.71289	6448.921	14.57913	-93.86092	0.3423071
33.76688	6443.83	14.25244	-93.80478	0.3393804
33.82087	6438.696	13.9404	-93.74682	0.3403961
33.87487	6433.525	13.64602	-93.68731	0.3462275
33.92886	6428.324	13.37086	-93.62659	0.357372
33.98285	6423.107	13.12015	-93.56507	0.3738289
34.03684	6417.891	12.89997	-93.50314	0.3951238
34.09083	6412.688	12.7146	-93.4412	0.4203742
34.14482	6407.51	12.56972	-93.37962	0.4484487
34.19882	6402.365	12.4741	-93.31871	0.4781047
34.25281	6397.248	12.43849	-93.25872	0.5080895
34.3068	6392.15	12.46975	-93.19981	0.5371832
34.36079	6387.065	12.56642	-93.14211	0.564245
34.41478	6381.985	12.71979	-93.08562	0.5882289
34.46878	6376.903	12.91638	-93.03038	0.6082439
34.52277	6371.817	13.13535	-92.97627	0.6235489
34.57676	6366.722	13.3559	-92.92317	0.6335689
34.63075	6361.623	13.55787	-92.87091	0.6379268
34.68474	6356.524	13.72813	-92.81925	0.6364328
34.73874	6351.436	13.86473	-92.76801	0.6290889
34.79272	6346.369	13.96975	-92.71693	0.616093
34.84672	6341.332	14.04251	-92.66582	0.5978211
34.90071	6336.333	14.08216	-92.61444	0.5747976
34.9547	6331.377	14.08893	-92.56256	0.5476927
35.00869	6326.464	14.05826	-92.50993	0.5172744
35.06268	6321.594	13.9911	-92.45632	0.4844252
35.11668	6316.764	13.89655	-92.40148	0.4501016
35.17067	6311.963	13.78373	-92.34518	0.4153409
35.22466	6307.183	13.65968	-92.28718	0.3812641
35.27865	6302.406	13.53229	-92.2273	0.3490997
35.33264	6297.617	13.40764	-92.16536	0.3202603
35.38663	6292.805	13.28454	-92.1012	0.296363
35.44063	6287.968	13.16106	-92.03471	0.2791275
35.49462	6283.107	13.03638	-91.96586	0.2700897
35.54861	6278.22	12.91582	-91.89464	0.2701229
35.6026	6273.312	12.80867	-91.82117	0.279044
35.65659	6268.393	12.72448	-91.74561	0.2956364
35.71059	6263.47	12.67399	-91.66823	0.3180529
35.76458	6258.547	12.66782	-91.58935	0.3442717
35.81857	6253.627	12.7139	-91.50937	0.3724521
35.87256	6248.706	12.81314	-91.42876	0.4009815
35.92655	6243.776	12.96079	-91.34799	0.4285642
35.98055	6238.834	13.1454	-91.26756	0.454147
36.03453	6233.88	13.35196	-91.18793	0.4769009
36.08853	6228.911	13.55758	-91.10954	0.4962175
36.14252	6223.935	13.74084	-91.03276	0.5116309
36.19651	6218.95	13.88648	-90.95793	0.5228145
36.2505	6213.953	13.98863	-90.88533	0.5295411
36.30449	6208.942	14.05171	-90.81516	0.5316768
36.35849	6203.919	14.08622	-90.74753	0.5291618
36.41248	6198.881	14.09935	-90.68253	0.5220028
36.46647	6193.832	14.09911	-90.62014	0.5102162
36.52046	6188.771	14.08845	-90.5603	0.4938847
36.57445	6183.708	14.06844	-90.50291	0.4730993
36.62844	6178.658	14.03909	-90.44779	0.4480237
36.68244	6173.63	14.00186	-90.39471	0.4188544
36.73643	6168.632	13.95658	-90.34339	0.3858251
36.79042	6163.669	13.89966	-90.2935	0.3493011
36.84441	6158.75	13.83152	-90.24469	0.3098072
36.8984	6153.873	13.7611	-90.19661	0.268196
36.9524	6149.032	13.69898	-90.14887	0.225902
37.00639	6144.213	13.64779	-90.10113	0.1855617
37.06038	6139.401	13.61419	-90.05302	0.1522867
37.11437	6134.587	13.60114	-90.0042	0.1349263
37.16836	6129.771	13.60682	-89.95436	0.1419087
37.22235	6124.957	13.619	-89.90324	0.1714113
37.27634	6120.148	13.62323	-89.85059	0.2145197
37.33034	6115.348	13.61096	-89.79617	0.2642442
37.38433	6110.562	13.58781	-89.73983	0.3166963
37.43832	6105.792	13.56175	-89.68141	0.3696834
37.49231	6101.041	13.53685	-89.62083	0.4218915
37.5463	6096.306	13.51723	-89.5581	0.4724759
37.6003	6091.583	13.50383	-89.49327	0.5208972
37.65429	6086.873	13.49893	-89.42653	0.5668492
37.70828	6082.168	13.50421	-89.35809	0.6101998
37.76227	6077.468	13.52252	-89.28823	0.6509835
37.81626	6072.768	13.55856	-89.21727	0.6893525
37.87025	6068.061	13.61113	-89.14555	0.7255288
37.92425	6063.339	13.67327	-89.0734	0.7597461
37.97824	6058.602	13.73855	-89.00122	0.7921988
38.03223	6053.845	13.79901	-88.92936	0.8230091
38.08622	6049.063	13.84233	-88.85818	0.8522411
38.14021	6044.254	13.85544	-88.78807	0.8798777
38.19421	6039.421	13.82878	-88.71939	0.9058498
38.2482	6034.569	13.75589	-88.65249	0.9300191
38.30219	6029.703	13.63651	-88.58771	0.9521484
38.35618	6024.829	13.47667	-88.52534	0.9719501
38.41017	6019.959	13.28894	-88.46566	0.9890975
38.46416	6015.102	13.09344	-88.40886	1.003246
38.51815	6010.255	12.91397	-88.3551	1.014064
38.57215	6005.424	12.76898	-88.30451	1.021227
38.62614	6000.604	12.67197	-88.25716	1.024459
38.68013	5995.792	12.63	-88.21304	1.023545
38.73412	5990.984	12.63396	-88.17209	1.018352
38.78811	5986.177	12.65701	-88.13419	1.008808
38.84211	5981.37	12.672	-88.09916	0.9949167
38.8961	5976.564	12.66182	-88.06676	0.976715
38.95009	5971.766	12.61875	-88.03677	0.9543135
39.00408	5966.979	12.54916	-88.00888	0.9278267
39.05807	5962.209	12.46737	-87.98288	0.8974056
39.11206	5957.461	12.39348	-87.95852	0.8632243
39.16606	5952.736	12.34674	-87.9356	0.8254567
39.22005	5948.036	12.34092	-87.91391	0.7842889
39.27404	5943.361	12.3821	-87.89327	0.7399194
39.32803	5938.712	12.4699	-87.87352	0.6925199
39.38202	5934.083	12.60028	-87.85448	0.6422579
39.43602	5929.464	12.76883	-87.83598	0.5893211
39.49001	5924.85	12.96695	-87.81788	0.5339108
39.544	5920.235	13.18659	-87.8	0.4763109
39.59799	5915.615	13.42051	-87.7822	0.4169201
39.65198	5910.982	13.65986	-87.76434	0.3563241
39.70597	5906.331	13.8977	-87.74627	0.2953894
39.75996	5901.655	14.13287	-87.72788	0.2355851
39.81396	5896.951	14.3641	-87.70901	0.1796826
39.86795	5892.22	14.58592	-87.68951	0.1339104
39.92194	5887.463	14.79009	-87.6692	0.1116072
39.97593	5882.693	14.97213	-87.64794	0.1248456
40.02992	5877.915	15.12773	-87.62562	0.1637173
40.08392	5873.134	15.25216	-87.60212	0.2130357
40.13791	5868.356	15.34485	-87.57738	0.2654625
40.1919	5863.589	15.40715	-87.55136	0.3179867
40.24589	5858.837	15.43867	-87.52403	0.3692749
40.29988	5854.094	15.43661	-87.49541	0.4187331
40.35387	5849.358	15.39392	-87.46552	0.4661308
40.40787	5844.63	15.30025	-87.43441	0.5114515
40.46186	5839.909	15.14669	-87.40215	0.5548096
40.51585	5835.19	14.92884	-87.36879	0.5964041
40.56984	5830.47	14.64887	-87.33437	0.6364468
40.62383	5825.743	14.32905	-87.29892	0.6751286
40.67783	5821.014	14.00078	-87.2624	0.7125578
40.73182	5816.286	13.69204	-87.22476	0.7487503
40.78581	5811.561	13.41859	-87.18588	0.7836074
40.8398	5806.836	13.1862	-87.14563	0.8168885
40.89379	5802.112	12.99493	-87.10383	0.8482378
40.94778	5797.392	12.84161	-87.06032	0.8772036
41.00177	5792.678	12.71966	-87.01497	0.9032443
41.05577	5787.972	12.62219	-86.96764	0.9258119
41.10976	5783.274	12.54381	-86.91828	0.9443454
41.16375	5778.58	12.48762	-86.86684	0.9583366
41.21774	5773.886	12.4644	-86.81331	0.9673603
41.27173	5769.19	12.47452	-86.75772	0.9710796
41.32573	5764.487	12.50427	-86.70013	0.9693115
41.37972	5759.776	12.54197	-86.64059	0.9620019
41.43371	5755.054	12.578	-86.57922	0.9493089
41.4877	5750.323	12.60539	-86.51614	0.9316167
41.54169	5745.58	12.6216	-86.45144	0.9094437
41.59568	5740.818	12.62819	-86.38527	0.8834897
41.64968	5736.037	12.63043	-86.31775	0.8545294
41.70367	5731.236	12.63597	-86.24899	0.8233915
41.75766	5726.425	12.6513	-86.17912	0.7909437
41.81165	5721.613	12.68077	-86.10823	0.7580267
41.86564	5716.81	12.72275	-86.03645	0.7255012
41.91964	5712.029	12.77159	-85.96385	0.6942471
41.97363	5707.283	12.81668	-85.89048	0.6651595
42.02762	5702.579	12.83867	-85.81641	0.6391526
42.08161	5697.916	12.81117	-85.74169	0.6170756
42.1356	5693.292	12.70759	-85.66639	0.5996492
42.18959	5688.699	12.512	-85.59059	0.5873483
42.24358	5684.125	12.22729	-85.51439	0.5803027
42.29758	5679.563	11.87578	-85.43788	0.5781957
42.35157	5675.004	11.49116	-85.36122	0.5802969
42.40556	5670.447	11.10696	-85.28459	0.5855271
42.45955	5665.89	10.75082	-85.20823	0.592629
42.51354	5661.339	10.43738	-85.13239	0.6003277
42.56754	5656.796	10.17337	-85.05731	0.6074102
42.62153	5652.263	9.959257	-84.98325	0.6128326
42.67552	5647.74	9.79126	-84.91038	0.6157422
42.72951	5643.228	9.661628	-84.83889	0.6154987
42.7835	5638.727	9.565408	-84.76896	0.6116822
42.83749	5634.237	9.503883	-84.70071	0.6041204
42.89149	5629.751	9.482648	-84.63428	0.5928617
42.94548	5625.266	9.508342	-84.56979	0.5782146
42.99947	5620.774	9.585705	-84.50735	0.5606816
43.05346	5616.273	9.713175	-84.44706	0.5409499
43.10745	5611.767	9.888129	-84.38895	0.5198456
43.16145	5607.258	10.11707	-84.33308	0.4983098
43.21544	5602.751	10.40857	-84.2795	0.477339
43.26943	5598.247	10.76488	-84.22827	0.4580129
43.32342	5593.744	11.18193	-84.17943	0.4413915
43.37741	5589.248	11.65476	-84.13304	0.4284269
43.4314	5584.76	12.1694	-84.08917	0.4198649
43.48539	5580.281	12.70446	-84.04796	0.4160581
43.53939	5575.804	13.23312	-84.00952	0.4169764
43.59338	5571.324	13.7278	-83.97399	0.4221493
43.64737	5566.839	14.16208	-83.94149	0.4308172
43.70136	5562.349	14.51663	-83.91206	0.4420095
43.75535	5557.852	14.77974	-83.88577	0.4546837
43.80935	5553.344	14.95239	-83.86259	0.4678687
43.86334	5548.825	15.04782	-83.84245	0.4807338
43.91733	5544.301	15.0876	-83.82521	0.4925662
43.97132	5539.779	15.09186	-83.81068	0.5027615
44.02531	5535.258	15.07713	-83.79862	0.5107893
44.0793	5530.741	15.05117	-83.78873	0.5162125
44.1333	5526.233	15.01511	-83.78067	0.5186572
44.18729	5521.74	14.96184	-83.77409	0.5178239
44.24128	5517.265	14.88013	-83.76859	0.5135167
44.29527	5512.808	14.75961	-83.76375	0.5056341
44.34926	5508.361	14.5937	-83.75916	0.4942053
44.40326	5503.911	14.38348	-83.75443	0.4794336
44.45724	5499.454	14.13659	-83.74914	0.4616994
44.51124	5494.986	13.86988	-83.74295	0.4416218
44.56523	5490.505	13.60056	-83.73548	0.4201051
44.61922	5486.002	13.346	-83.72642	0.3984334
44.67321	5481.47	13.1227	-83.71544	0.3782792
44.7272	5476.907	12.93938	-83.70227	0.3617123
44.7812	5472.322	12.79446	-83.6867	0.3510329
44.83519	5467.727	12.68252	-83.66853	0.3484003
44.88918	5463.131	12.60123	-83.64764	0.3552357
44.94317	5458.54	12.55223	-83.62392	0.3717504
44.99716	5453.952	12.53568	-83.5973	0.3968411
45.05116	5449.368	12.54974	-83.56773	0.4285277
45.10515	5444.787	12.59069	-83.53519	0.4644489
45.15914	5440.21	12.64668	-83.49968	0.5022642
45.21313	5435.643	12.70461	-83.46121	0.5399237
45.26712	5431.087	12.75507	-83.41986	0.5756674
45.32111	5426.538	12.79311	-83.3757	0.6081013
45.37511	5421.993	12.81695	-83.32884	0.6361442
45.4291	5417.451	12.83279	-83.27937	0.6590281
45.48309	5412.909	12.85166	-83.22746	0.6763031
45.53708	5408.36	12.88564	-83.17322	0.6877645
45.59107	5403.806	12.93758	-83.11685	0.6934451
45.64507	5399.249	12.99943	-83.05855	0.6935827
45.69905	5394.689	13.05593	-82.99849	0.6885696
45.75305	5390.125	13.09557	-82.93689	0.6789672
45.80704	5385.553	13.11017	-82.87392	0.6653813
45.86103	5380.975	13.09361	-82.80975	0.6484699
45.91502	5376.401	13.04026	-82.74455	0.6288814
45.96901	5371.836	12.94446	-82.67846	0.607217
46.02301	5367.285	12.80353	-82.61161	0.5840591
46.077	5362.744	12.62157	-82.54409	0.5599306
46.13099	5358.216	12.41217	-82.47601	0.53532
46.18498	5353.703	12.19339	-82.40746	0.5106696
46.23897	5349.208	11.9804	-82.33855	0.4863697
46.29296	5344.729	11.7855	-82.26936	0.462752
46.34696	5340.266	11.61748	-82.19994	0.4400898
46.40095	5335.813	11.4838	-82.13036	0.4186087
46.45494	5331.374	11.39189	-82.06061	0.3985021
46.50893	5326.95	11.33649	-81.99069	0.3799213
46.56292	5322.538	11.3013	-81.92058	0.3630106
46.61692	5318.129	11.26972	-81.85025	0.3478879
46.67091	5313.718	11.23155	-81.77969	0.3346753
46.7249	5309.307	11.17877	-81.70892	0.3234827
46.77889	5304.902	11.1076	-81.63802	0.3144261
46.83288	5300.513	11.02335	-81.56703	0.3075939
46.88688	5296.151	10.93796	-81.49605	0.3030528
46.94086	5291.825	10.8648	-81.42516	0.3008339
46.99486	5287.537	10.81889	-81.35448	0.3008849
47.04885	5283.281	10.814	-81.28413	0.3031055
47.10284	5279.053	10.86032	-81.21424	0.3073314
47.15683	5274.847	10.95884	-81.14492	0.3133456
47.21082	5270.66	11.10967	-81.0763	0.320915
47.26482	5266.484	11.30539	-81.00854	0.3298005
47.31881	5262.307	11.52894	-80.94178	0.3397745
47.3728	5258.119	11.76465	-80.87614	0.3506259
47.42679	5253.912	11.99533	-80.81175	0.362137
47.48078	5249.683	12.20705	-80.74867	0.374126
47.53477	5245.425	12.39264	-80.68696	0.386444
47.58877	5241.134	12.54756	-80.62668	0.3989854
47.64276	5236.807	12.66635	-80.56788	0.4117144
47.69675	5232.448	12.74758	-80.51061	0.4246503
47.75074	5228.058	12.79356	-80.4549	0.437893
47.80473	5223.643	12.80554	-80.40074	0.4515773
47.85873	5219.21	12.78597	-80.34808	0.4659149
47.91272	5214.775	12.73648	-80.29683	0.4811264
47.96671	5210.35	12.66529	-80.24688	0.4974773
48.0207	5205.94	12.58209	-80.1981	0.515222
48.07469	5201.548	12.4926	-80.15034	0.5345957
48.12868	5197.171	12.40266	-80.10343	0.5557982
48.18267	5192.811	12.31889	-80.0572	0.5789567
48.23667	5188.464	12.24353	-80.01147	0.6041129
48.29066	5184.129	12.17077	-79.96606	0.6312312
48.34465	5179.802	12.09203	-79.92078	0.6601616
48.39864	5175.479	12.00622	-79.87543	0.6906759
48.45263	5171.163	11.91659	-79.8298	0.7224425
48.50663	5166.853	11.83574	-79.78362	0.7550668
48.56062	5162.545	11.77033	-79.73661	0.7881194
48.61461	5158.238	11.71636	-79.68853	0.8211435
48.6686	5153.925	11.66659	-79.63914	0.8537079
48.72259	5149.604	11.61153	-79.58824	0.885363
48.77658	5145.272	11.54307	-79.5357	0.9156726
48.83058	5140.928	11.45953	-79.48138	0.9442043
48.88457	5136.577	11.36807	-79.42519	0.9705505
48.93856	5132.228	11.27741	-79.3671	0.9943271
48.99255	5127.893	11.1965	-79.3071	1.015197
49.04654	5123.578	11.1311	-79.2452	1.032871
49.10054	5119.29	11.08308	-79.18146	1.047125
49.15453	5115.024	11.05412	-79.11593	1.057781
49.20852	5110.771	11.04051	-79.04868	1.064796
49.26251	5106.513	11.04052	-78.9798	1.068197
49.3165	5102.232	11.05596	-78.90942	1.06812
49.37049	5097.919	11.08383	-78.83766	1.064786
49.42448	5093.576	11.1156	-78.76463	1.058448
49.47848	5089.21	11.14089	-78.69049	1.049385
49.53247	5084.832	11.14886	-78.61541	1.037875
49.58646	5080.452	11.12936	-78.53953	1.02419
49.64045	5076.088	11.07456	-78.46304	1.0086
49.69444	5071.748	10.9797	-78.38609	0.9913601
49.74844	5067.438	10.84151	-78.30888	0.9727054
49.80243	5063.157	10.65446	-78.23154	0.9528256
49.85642	5058.906	10.41298	-78.15421	0.9318398
49.91041	5054.684	10.12232	-78.07701	0.909785
49.9644	5050.491	9.802179	-78.00009	0.8866051
50.01839	5046.323	9.475493	-77.92357	0.8622144
50.07239	5042.174	9.159668	-77.84754	0.836462
50.12638	5038.036	8.871223	-77.7721	0.8091966
50.18037	5033.898	8.622563	-77.6973	0.7802807
50.23436	5029.753	8.415943	-77.6232	0.749637
50.28835	5025.602	8.244748	-77.54983	0.7172928
50.34235	5021.446	8.097491	-77.47722	0.6833889
50.39634	5017.288	7.962451	-77.4054	0.6482287
50.45033	5013.134	7.837344	-77.33443	0.6122783
50.50432	5008.99	7.729809	-77.26434	0.5761893
50.55831	5004.86	7.646968	-77.19514	0.5407968
50.6123	5000.75	7.594909	-77.12685	0.5070869
50.66629	4996.667	7.580979	-77.05951	0.4762019
50.72029	4992.613	7.603451	-76.99314	0.4493434
50.77428	4988.583	7.655825	-76.92775	0.4276535
50.82827	4984.561	7.736231	-76.86333	0.4120431
50.88226	4980.532	7.844773	-76.79987	0.4030032
50.93625	4976.489	7.983171	-76.73731	0.4004869
50.99025	4972.429	8.150708	-76.67561	0.4038478
51.04424	4968.357	8.351182	-76.61473	0.4119937
51.09823	4964.284	8.58522	-76.5546	0.4235434
51.15222	4960.217	8.845412	-76.49514	0.4370547
51.20621	4956.165	9.120196	-76.43626	0.4511736
51.2602	4952.123	9.396701	-76.37787	0.4647326
51.3142	4948.087	9.660267	-76.31987	0.4768037
51.36819	4944.047	9.896931	-76.2622	0.4866746
51.42218	4939.994	10.09758	-76.20481	0.4938093
51.47617	4935.917	10.25945	-76.14775	0.4978185
51.53016	4931.807	10.38378	-76.09105	0.4984093
51.58416	4927.658	10.4721	-76.03477	0.4953843
51.63815	4923.472	10.5261	-75.97894	0.4885877
51.69214	4919.254	10.54908	-75.9236	0.4778961
51.74613	4915.018	10.54047	-75.86873	0.4632278
51.80012	4910.777	10.49715	-75.81429	0.4445718
51.85411	4906.548	10.4146	-75.76022	0.4220013
51.9081	4902.343	10.2875	-75.7065	0.3957122
51.9621	4898.167	10.11766	-75.65308	0.3660567
52.01609	4894.025	9.918965	-75.59995	0.3335734
52.07008	4889.916	9.714858	-75.54705	0.299101
52.12407	4885.833	9.524516	-75.49436	0.2639131
52.17806	4881.775	9.36263	-75.44186	0.2300205
52.23206	4877.735	9.239413	-75.3895	0.2006292
52.28605	4873.706	9.155782	-75.33726	0.1804807
52.34004	4869.678	9.108516	-75.28509	0.1748958
52.39403	4865.644	9.097937	-75.23297	0.186568
52.44802	4861.599	9.127576	-75.18089	0.213351
52.50201	4857.535	9.193291	-75.12884	0.2505558
52.55601	4853.449	9.284672	-75.07683	0.2939663
52.61	4849.347	9.394208	-75.02487	0.3406709
52.66399	4845.235	9.513954	-74.97303	0.3887599
52.71798	4841.124	9.632583	-74.92136	0.4369589
52.77197	4837.019	9.737742	-74.86996	0.4843833
52.82597	4832.922	9.822775	-74.81894	0.5304378
52.87996	4828.838	9.880994	-74.76836	0.5747089
52.93395	4824.766	9.905698	-74.7183	0.6170105
52.98794	4820.701	9.894664	-74.66883	0.6572837
53.04193	4816.641	9.851483	-74.61996	0.6956125
53.09592	4812.58	9.790949	-74.57165	0.7321921
53.14991	4808.517	9.731034	-74.52386	0.7672853
53.20391	4804.445	9.683453	-74.47649	0.8012125
53.2579	4800.358	9.652907	-74.42944	0.8342807
53.31189	4796.26	9.643587	-74.38256	0.8667531
53.36588	4792.164	9.651523	-74.33577	0.8988338
53.41987	4788.085	9.665524	-74.28897	0.93064
53.47387	4784.039	9.669811	-74.24213	0.9621686
53.52786	4780.031	9.65095	-74.19527	0.9933124
53.58185	4776.061	9.596277	-74.1484	1.023847
53.63584	4772.127	9.496521	-74.10152	1.053469
53.68983	4768.229	9.342845	-74.05463	1.081815
53.74382	4764.36	9.132932	-74.00771	1.108433
53.79782	4760.522	8.874074	-73.96069	1.132815
53.85181	4756.711	8.579122	-73.91354	1.154371
53.9058	4752.922	8.258849	-73.86619	1.172471
53.95979	4749.144	7.926453	-73.81862	1.186462
54.01378	4745.362	7.604403	-73.7708	1.195721
54.06778	4741.558	7.318796	-73.72273	1.199691
54.12177	4737.719	7.092784	-73.67448	1.197903
54.17576	4733.844	6.940401	-73.62613	1.189998
54.22975	4729.935	6.862379	-73.57781	1.175725
54.28374	4725.997	6.843521	-73.52972	1.154941
54.33773	4722.04	6.863838	-73.48204	1.127642
54.39172	4718.07	6.907619	-73.43498	1.093965
54.44572	4714.095	6.961401	-73.38876	1.054151
54.49971	4710.12	7.014494	-73.34352	1.008555
54.5537	4706.143	7.060789	-73.29945	0.9576395
54.60769	4702.162	7.099149	-73.25668	0.9019627
54.66168	4698.173	7.132941	-73.21534	0.8421676
54.71568	4694.174	7.168494	-73.17553	0.7790003
54.76967	4690.159	7.221488	-73.13733	0.7133123
54.82366	4686.124	7.311468	-73.10077	0.646058
54.87765	4682.074	7.453842	-73.06581	0.5783057
54.93164	4678.015	7.655116	-73.03239	0.5112864
54.98563	4673.954	7.915024	-73.00033	0.4463899
55.03963	4669.901	8.223442	-72.96942	0.3852683
55.09362	4665.869	8.560863	-72.93938	0.3299191
55.14761	4661.865	8.904644	-72.90985	0.2828564
55.2016	4657.886	9.234219	-72.88048	0.2470495
55.25559	4653.922	9.536522	-72.85084	0.2252479
55.30959	4649.971	9.808397	-72.82051	0.2184765
55.36357	4646.031	10.04778	-72.78908	0.2247539
55.41757	4642.1	10.25032	-72.75612	0.2399065
55.47156	4638.174	10.41015	-72.72124	0.259555
55.52555	4634.246	10.5247	-72.68404	0.2802594
55.57954	4630.315	10.59169	-72.64417	0.2996667
55.63353	4626.382	10.6107	-72.60128	0.3162144
55.68753	4622.445	10.5834	-72.55502	0.3288656
55.74152	4618.503	10.51225	-72.50509	0.3369524
55.79551	4614.559	10.40558	-72.4512	0.3400521
55.8495	4610.618	10.27376	-72.39314	0.3379251
55.90349	4606.684	10.12271	-72.33071	0.3305158
55.95749	4602.758	9.952599	-72.26379	0.3179409
56.01148	4598.843	9.765207	-72.19227	0.3005359
56.06547	4594.939	9.569558	-72.11614	0.2788821
56.11946	4591.051	9.379367	-72.03545	0.2539136
56.17345	4587.179	9.207081	-71.95036	0.2271046
56.22744	4583.328	9.05682	-71.86112	0.2007665
56.28144	4579.491	8.929887	-71.76809	0.1784953
56.33543	4575.663	8.82782	-71.6717	0.1652494
56.38942	4571.836	8.751825	-71.57245	0.165879
56.44341	4568.006	8.70472	-71.47088	0.181916
56.4974	4564.172	8.690254	-71.36755	0.2105735
56.5514	4560.331	8.710877	-71.26306	0.2474659
56.60538	4556.479	8.765921	-71.15803	0.2888757
56.65938	4552.616	8.846617	-71.05308	0.3321217
56.71337	4548.738	8.940095	-70.94886	0.3752892
56.76736	4544.837	9.036051	-70.84597	0.4169063
56.82135	4540.915	9.126566	-70.74496	0.4558158
56.87534	4536.973	9.206499	-70.64634	0.4911017
56.92934	4533.018	9.273602	-70.55047	0.5220662
56.98333	4529.059	9.327133	-70.45764	0.5482177
57.03732	4525.104	9.367334	-70.36803	0.5692641
57.09131	4521.164	9.389989	-70.28169	0.5851001
57.1453	4517.244	9.391138	-70.19857	0.5957969
57.1993	4513.345	9.366339	-70.11852	0.6015938
57.25329	4509.465	9.316501	-70.0413	0.6028879
57.30728	4505.606	9.246125	-69.96662	0.6002518
57.36127	4501.766	9.161878	-69.89411	0.5944613
57.41526	4497.945	9.071774	-69.82336	0.5864525
57.46925	4494.147	8.984438	-69.75391	0.5773243
57.52325	4490.375	8.901613	-69.68528	0.5682994
57.57724	4486.63	8.822208	-69.61695	0.5606452
57.63123	4482.915	8.739785	-69.54842	0.5555801
57.68522	4479.235	8.646201	-69.47919	0.5541463
57.73921	4475.599	8.535297	-69.40875	0.5570741
57.79321	4472.009	8.407048	-69.33666	0.5646714
57.84719	4468.462	8.265026	-69.2625	0.5768082
57.90119	4464.954	8.112032	-69.18592	0.5928985
57.95518	4461.474	7.951147	-69.10662	0.6119881
58.00917	4458.014	7.785605	-69.02435	0.6328843
58.06316	4454.559	7.621682	-68.93893	0.654298
58.11715	4451.096	7.468202	-68.85031	0.6749763
58.17115	4447.618	7.337312	-68.75846	0.6937573
58.22514	4444.117	7.237105	-68.66349	0.7096254
58.27913	4440.591	7.170527	-68.56554	0.721746
58.33312	4437.036	7.132824	-68.46485	0.729468
58.38711	4433.453	7.113273	-68.36169	0.7323111
58.4411	4429.843	7.098196	-68.25642	0.7299703
58.4951	4426.208	7.079988	-68.14938	0.7222775
58.54909	4422.552	7.053224	-68.04098	0.7092072
58.60308	4418.878	7.015861	-67.93167	0.6908323
58.65707	4415.184	6.972968	-67.82191	0.6673159
58.71106	4411.466	6.934659	-67.71219	0.6389034
58.76506	4407.718	6.913311	-67.60294	0.6059354
58.81905	4403.939	6.922132	-67.49461	0.5688432
58.87304	4400.128	6.968048	-67.38752	0.5281648
58.92703	4396.289	7.052077	-67.28197	0.484501
58.98102	4392.429	7.171966	-67.17811	0.4385681
59.03502	4388.554	7.324486	-67.07603	0.3911322
59.089	4384.672	7.505984	-66.97566	0.3430355
59.143	4380.793	7.713837	-66.87688	0.2952659
59.19699	4376.925	7.941955	-66.7794	0.2490753
59.25098	4373.076	8.184072	-66.68286	0.2062889
59.30497	4369.25	8.434787	-66.58682	0.1697892
59.35896	4365.455	8.690241	-66.49077	0.1441014
59.41296	4361.691	8.945771	-66.39408	0.1345142
59.46695	4357.96	9.19368	-66.29613	0.1427391
59.52094	4354.262	9.427546	-66.19624	0.1643457
59.57493	4350.595	9.638608	-66.09372	0.1930722
59.62892	4346.959	9.815706	-65.98783	0.2243826
59.68291	4343.355	9.949599	-65.87783	0.2555711
59.73691	4339.785	10.03753	-65.76299	0.2849885
59.7909	4336.244	10.08284	-65.6426	0.3115602
59.84489	4332.728	10.09284	-65.51596	0.3345108
59.89888	4329.237	10.07595	-65.38245	0.3532633
59.95287	4325.773	10.03529	-65.24146	0.3673874
60.00687	4322.342	9.971287	-65.0925	0.3765782
60.06086	4318.941	9.880603	-64.93514	0.3806766
60.11485	4315.568	9.759472	-64.76908	0.3796425
60.16884	4312.221	9.609269	-64.5941	0.3735807
60.22283	4308.896	9.439337	-64.41007	0.3627323
60.27682	4305.583	9.259807	-64.21699	0.347463
60.33081	4302.271	9.082061	-64.01492	0.3282777
60.38481	4298.948	8.909853	-63.804	0.3058518
60.4388	4295.611	8.744041	-63.5845	0.2811156
60.49279	4292.262	8.582415	-63.35674	0.2553535
60.54678	4288.901	8.4211	-63.12111	0.2303311
60.60077	4285.525	8.256086	-62.87809	0.2084062
60.65477	4282.13	8.085868	-62.62815	0.1925058
60.70876	4278.712	7.917709	-62.37185	0.1855674
60.76275	4275.272	7.76304	-62.10971	0.1893295
60.81674	4271.811	7.634377	-61.84229	0.2032952
60.87073	4268.329	7.541566	-61.57012	0.2250841
60.92472	4264.832	7.491554	-61.29366	0.2517502
60.97872	4261.321	7.487856	-61.01334	0.280692
61.03271	4257.805	7.527981	-60.72952	0.3099005
61.0867	4254.295	7.608203	-60.44245	0.337894
61.14069	4250.802	7.721414	-60.15232	0.3635737
61.19468	4247.33	7.857428	-59.85917	0.3861438
61.24868	4243.881	8.005637	-59.56293	0.4050766
61.30267	4240.458	8.159307	-59.26342	0.4200206
61.35666	4237.066	8.315144	-58.96034	0.4307908
61.41065	4233.706	8.47063	-58.65332	0.4372958
61.46464	4230.382	8.625005	-58.34186	0.4395179
61.51863	4227.095	8.77427	-58.02542	0.4375272
61.57262	4223.853	8.91396	-57.70336	0.4314794
61.62662	4220.659	9.037962	-57.37495	0.4216292
61.68061	4217.516	9.143118	-57.03937	0.408345
61.7346	4214.419	9.225024	-56.69577	0.3920755
61.78859	4211.363	9.280456	-56.34324	0.373386
61.84258	4208.341	9.304016	-55.98087	0.3529136
61.89658	4205.348	9.291416	-55.60772	0.3313383
61.95057	4202.385	9.242135	-55.2229	0.3093437
62.00456	4199.451	9.157698	-54.82552	0.2876199
62.05855	4196.54	9.042263	-54.41475	0.2668037
62.11254	4193.645	8.899904	-53.98981	0.2474843
62.16653	4190.765	8.734931	-53.54998	0.2301625
62.22053	4187.902	8.554387	-53.09462	0.2152491
62.27452	4185.059	8.364902	-52.62315	0.203065
62.32851	4182.232	8.172983	-52.13503	0.1938471
62.3825	4179.418	7.982391	-51.62981	0.1877059
62.43649	4176.619	7.794464	-51.10707	0.1846292
62.49049	4173.836	7.61024	-50.56647	0.1845251
62.54448	4171.074	7.432036	-50.0077	0.1872219
62.59847	4168.328	7.26066	-49.43049	0.1925601
62.65246	4165.592	7.102697	-48.8346	0.2003967
62.70645	4162.859	6.970248	-48.21979	0.2106383
62.76044	4160.131	6.874175	-47.58588	0.2231982
62.81443	4157.407	6.821401	-46.93269	0.2379826
62.86843	4154.688	6.815151	-46.26001	0.2548676
62.92242	4151.976	6.852982	-45.56769	0.2736852
62.97641	4149.269	6.929721	-44.8555	0.2942643
63.0304	4146.568	7.043683	-44.12322	0.3164375
63.08439	4143.886	7.195349	-43.37055	0.3400456
63.13839	4141.236	7.380482	-42.59716	0.364998
63.19238	4138.631	7.584327	-41.80263	0.3912626
63.24637	4136.081	7.790671	-40.98649	0.4188327
63.30036	4133.587	7.98726	-40.14814	0.4477563
63.35435	4131.148	8.169727	-39.28695	0.4780538
63.40834	4128.761	8.338556	-38.40217	0.5096908
63.46234	4126.421	8.490711	-37.49301	0.5426381
63.51633	4124.127	8.619273	-36.55856	0.576828
63.57032	4121.873	8.71325	-35.59785	0.6121771
63.62431	4119.654	8.765469	-34.60983	0.6485954
63.6783	4117.47	8.774536	-33.59333	0.6859659
63.7323	4115.323	8.744277	-32.54716	0.724118
63.78629	4113.218	8.677481	-31.47005	0.7628701
63.84028	4111.166	8.574237	-30.36076	0.8020377
63.89427	4109.175	8.444248	-29.21795	0.8413612
63.94826	4107.256	8.297922	-28.04034	0.8805789
64.00225	4105.415	8.150024	-26.82658	0.9194242
64.05624	4103.654	8.013538	-25.57533	0.9576601
64.11024	4101.976	7.894043	-24.28522	0.9949861
64.16423	4100.385	7.792596	-22.95488	1.031158
64.21822	4098.885	7.704129	-21.58295	1.065912
64.27221	4097.479	7.624014	-20.16808	1.099005
64.3262	4096.157	7.545933	-18.70892	1.130349
64.3802	4094.912	7.464932	-17.20408	1.159823
64.43419	4093.733	7.37873	-15.65226	1.187428
64.48818	4092.616	7.289444	-14.05209	1.213292
64.54217	4091.56	7.20073	-12.40224	1.237682
64.59616	4090.57	7.117246	-10.70138	1.260809
64.65015	4089.649	7.046199	-8.948119	1.283068
64.70415	4088.799	6.995317	-7.14112	1.304832
64.75814	4088.021	6.973723	-5.279045	1.326486
64.81213	4087.322	6.991435	-3.360549	1.348525
64.86612	4086.713	7.054662	-1.384216	1.371363
64.92011	4086.201	7.16442	0.651335	1.395369
64.97411	4085.796	7.318652	2.747619	1.420941
65.0281	4085.499	7.515874	4.906129	1.448383
65.08208	4085.312	7.75421	7.128472	1.477827
65.13608	4085.234	8.021602	9.416353	1.509425
65.19007	4085.26	8.29649	11.77159	1.543237
65.24406	4085.383	8.55038	14.19602	1.579252
65.29806	4085.599	8.761045	16.69174	1.617446
65.35204	4085.903	8.919147	19.26084	1.657706
65.40604	4086.3	9.025682	21.90551	1.699852
65.46003	4086.798	9.091874	24.6281	1.743749
65.51402	4087.412	9.130485	27.43096	1.789362
65.56802	4088.152	9.151392	30.31656	1.836553
65.622	4089.028	9.168114	33.28736	1.885309
65.67599	4090.046	9.201806	36.34598	1.935765
65.72999	4091.214	9.270494	39.49492	1.987989
65.78398	4092.541	9.374449	42.73684	2.042095
65.83797	4094.037	9.505269	46.07441	2.0983
65.89197	4095.718	9.647142	49.5103	2.156748
65.94595	4097.586	9.783217	53.04713	2.217701
65.99995	4099.641	9.89688	56.68776	2.281433
66.05394	4101.881	9.971676	60.43491	2.34815
66.10793	4104.304	10.00044	64.29138	2.417977
66.16193	4106.909	9.984747	68.26006	2.491049
66.21591	4109.696	9.928485	72.3438	2.567567
66.26991	4112.672	9.836625	76.54546	2.647411
66.3239	4115.835	9.716253	80.86806	2.730768
66.37789	4119.187	9.577464	85.31454	2.817566
66.43188	4122.728	9.429898	89.88779	2.907791
66.48587	4126.468	9.279826	94.59093	3.001351
66.53986	4130.421	9.13645	99.42699	3.098261
66.59386	4134.608	9.01277	104.399	3.198349
66.64785	4139.049	8.916891	109.5102	3.30171
66.70184	4143.757	8.852887	114.7636	3.408275
66.75583	4148.73	8.819131	120.1625	3.518146
66.80982	4153.969	8.810719	125.7099	3.63129
66.86382	4159.471	8.816358	131.4091	3.747927
66.91781	4165.24	8.821771	137.2634	3.868178
66.9718	4171.277	8.822229	143.2764	3.992402
67.02579	4177.591	8.823474	149.4513	4.120726
67.07978	4184.191	8.832495	155.7918	4.253356
67.13377	4191.089	8.853829	162.3016	4.390518
67.18777	4198.299	8.891098	168.9845	4.532196
67.24176	4205.835	8.948762	175.8445	4.678455
67.29575	4213.714	9.03535	182.886	4.829494
67.34974	4221.949	9.159432	190.1133	4.985171
67.40373	4230.552	9.328833	197.5309	5.14536
67.45773	4239.536	9.54804	205.1436	5.309947
67.51172	4248.915	9.81668	212.9562	5.478532
67.5657	4258.706	10.12488	220.9734	5.650922
67.6197	4268.921	10.46612	229.2002	5.826748
67.67369	4279.573	10.83706	237.6414	6.005891
67.72768	4290.673	11.23313	246.3015	6.187953
67.78168	4302.232	11.64899	255.1851	6.372663
67.83566	4314.263	12.08008	264.2958	6.559399
67.88966	4326.773	12.51638	273.6371	6.747808
67.94365	4339.768	12.94563	283.2119	6.93722
67.99764	4353.251	13.35864	293.0222	7.127204
68.05164	4367.227	13.7591	303.0695	7.31705
68.10562	4381.697	14.15695	313.3541	7.506136
68.15961	4396.668	14.56663	323.8757	7.69363
68.21361	4412.157	14.99815	334.633	7.878936
68.2676	4428.181	15.45443	345.6238	8.061357
68.32159	4444.756	15.9342	356.8451	8.24046
68.37559	4461.896	16.43407	368.2929	8.415524
68.42957	4479.608	16.94657	379.9624	8.586043
68.48357	4497.901	17.46646	391.8477	8.751179
68.53756	4516.782	17.98824	403.9424	8.910331
68.59155	4536.264	18.50502	416.2388	9.062726
68.64555	4556.368	19.01336	428.7289	9.207876
68.69953	4577.114	19.51224	441.4036	9.344976
68.75352	4598.521	20.0096	454.2528	9.47349
68.80752	4620.602	20.50896	467.2658	9.592957
68.86151	4643.372	21.01074	480.4309	9.702806
68.9155	4666.849	21.5196	493.7357	9.802649
68.96949	4691.052	22.04171	507.1672	9.892355
69.02348	4715.998	22.58417	520.7112	9.971633
69.07748	4741.708	23.15124	534.353	10.04036
69.13147	4768.201	23.74134	548.0773	10.0985
69.18546	4795.5	24.35242	561.8676	10.14586
69.23945	4823.625	24.98439	575.7073	10.18246
69.29344	4852.601	25.64496	589.5789	10.20836
69.34743	4882.452	26.34111	603.4643	10.22361
69.40143	4913.203	27.07289	617.3452	10.22814
69.45542	4944.883	27.83304	631.2022	10.22193
69.50941	4977.518	28.60973	645.0161	10.20492
69.5634	5011.133	29.39221	658.767	10.17693
69.61739	5045.756	30.17273	672.4344	10.1378
69.67139	5081.418	30.94402	685.9978	10.08728
69.72538	5118.148	31.7037	699.4358	10.02502
69.77937	5155.979	32.45986	712.7269	9.950682
69.83336	5194.941	33.22205	725.8488	9.863754
69.88735	5235.068	33.98941	738.7788	9.763775
69.94135	5276.393	34.75157	751.4938	9.650145
69.99534	5318.946	35.49846	763.9695	9.522091
70.04932	5362.743	36.22483	776.1816	9.378997
70.10332	5407.78	36.9325	788.1051	9.220149
70.15731	5454.047	37.63023	799.7145	9.045055
70.2113	5501.52	38.32554	810.9839	8.853247
70.2653	5550.154	39.02039	821.887	8.644386
70.31928	5599.888	39.70817	832.3973	8.418179
70.37328	5650.636	40.37313	842.4883	8.17474
70.42727	5702.31	41.00035	852.1334	7.914193
70.48126	5754.819	41.5778	861.3068	7.637126
70.53526	5808.079	42.09068	869.9828	7.344108
70.58924	5862.011	42.5274	878.1365	7.036176
70.64323	5916.544	42.88733	885.7432	6.714207
70.69723	5971.622	43.18268	892.78	6.379784
70.75122	6027.195	43.43931	899.2246	6.034703
70.80521	6083.23	43.68827	905.0562	5.681277
70.85921	6139.703	43.95525	910.2557	5.322697
70.91319	6196.599	44.25446	914.8054	4.962546
70.96719	6253.893	44.59173	918.6886	4.605592
71.02118	6311.555	44.96227	921.8914	4.258002
71.07517	6369.552	45.35433	924.4014	3.92759
71.12917	6427.843	45.75432	926.2079	3.624385
71.18315	6486.384	46.14409	927.3032	3.360328
71.23714	6545.121	46.50879	927.6811	3.149214
71.29114	6603.997	46.83928	927.3372	3.00555
71.34513	6662.961	47.13396	926.2697	2.940908
71.39912	6721.964	47.38704	924.4794	2.960798
71.45311	6780.961	47.59213	921.9685	3.063036
71.5071	6839.921	47.75692	918.7425	3.236738
71.5611	6898.826	47.89793	914.808	3.468412
71.61509	6957.655	48.02829	910.1743	3.743
71.66908	7016.387	48.15437	904.8516	4.048481
71.72307	7074.987	48.27029	898.853	4.373674
71.77706	7133.408	48.36845	892.193	4.710608
71.83105	7191.579	48.45351	884.8882	5.051948
71.88505	7249.413	48.52807	876.9561	5.393275
71.93904	7306.807	48.5769	868.4163	5.730494
71.99303	7363.646	48.57995	859.289	6.061559
72.04702	7419.802	48.51197	849.5961	6.383914
72.10101	7475.137	48.34478	839.3604	6.696239
72.15501	7529.51	48.05481	828.606	6.996714
72.209	7582.792	47.63029	817.3571	7.284678
72.26299	7634.867	47.07077	805.6388	7.559254
72.31698	7685.634	46.38638	793.4761	7.820454
72.37097	7735.004	45.60012	780.8951	8.067738
72.42496	7782.915	44.7393	767.9213	8.301068
72.47896	7829.324	43.82565	754.5809	8.519973
72.53294	7874.213	42.87204	740.8996	8.724727
72.58694	7917.572	41.88441	726.9035	8.915372
72.64093	7959.399	40.86298	712.6183	9.092391
72.69492	7999.695	39.80883	698.0699	9.255846
72.74892	8038.465	38.72958	683.2839	9.406069
72.8029	8075.719	37.64362	668.2863	9.543241
72.8569	8111.475	36.5689	653.1027	9.66748
72.91089	8145.75	35.51767	637.759	9.778907
72.96488	8178.563	34.49673	622.2809	9.877703
73.01888	8209.924	33.50896	606.6942	9.963765
73.07286	8239.852	32.55758	591.0248	10.03713
73.12685	8268.388	31.64309	575.2985	10.09755
73.18085	8295.581	30.75777	559.5408	10.14499
73.23484	8321.485	29.89487	543.7776	10.17938
73.28883	8346.161	29.05597	528.0342	10.20055
73.34283	8369.667	28.24172	512.336	10.20836
73.39681	8392.055	27.45214	496.7077	10.20266
73.45081	8413.381	26.69026	481.1739	10.18317
73.5048	8433.709	25.96919	465.7584	10.14993
73.55879	8453.104	25.30835	450.4845	10.10268
73.61279	8471.623	24.71801	435.3745	10.0414
73.66677	8489.323	24.20335	420.4502	9.965823
73.72076	8506.258	23.7604	405.7321	9.876189
73.77476	8522.475	23.3865	391.24	9.772594
73.82875	8538.02	23.08109	376.992	9.655704
73.88274	8552.922	22.83587	363.0055	9.525919
73.93673	8567.199	22.6355	349.2964	9.384177
73.99072	8580.875	22.46379	335.8797	9.230997
74.04472	8593.967	22.30109	322.7685	9.0676
74.09871	8606.486	22.12994	309.9749	8.894988
74.1527	8618.438	21.93906	297.5089	8.714741
74.20669	8629.827	21.7241	285.3795	8.528056
74.26068	8640.67	21.48713	273.5936	8.336466
74.31467	8650.987	21.23604	262.1571	8.141133
74.36867	8660.803	20.984	251.0737	7.943669
74.42266	8670.148	20.74202	240.3455	7.745337
74.47665	8679.062	20.52011	229.9727	7.547713
74.53064	8687.577	20.32773	219.9542	7.351853
74.58463	8695.731	20.17673	210.2869	7.158933
74.63863	8703.555	20.07634	200.9666	6.969666
74.69262	8711.071	20.02433	191.9875	6.784968
74.7466	8718.296	20.01387	183.3424	6.605526
74.8006	8725.232	20.02795	175.0232	6.431786
74.85459	8731.881	20.04674	167.0204	6.264298
74.90858	8738.242	20.04477	159.3241	6.103295
74.96258	8744.311	20.00046	151.9238	5.948693
75.01656	8750.073	19.90441	144.8081	5.800573
75.07056	8755.527	19.75948	137.9655	5.658786
75.12455	8760.684	19.57634	131.3846	5.523027
75.17854	8765.563	19.36347	125.0535	5.393141
75.23254	8770.187	19.12506	118.9606	5.268727
75.28652	8774.578	18.86346	113.0945	5.149548
75.34052	8778.76	18.58519	107.4442	5.035174
75.39451	8782.756	18.30258	101.9991	4.925296
75.4485	8786.588	18.03146	96.74872	4.819449
75.50249	8790.282	17.78829	91.68331	4.717284
75.55648	8793.848	17.58327	86.79365	4.618326
75.61047	8797.285	17.41352	82.07095	4.522202
75.66447	8800.582	17.26843	77.5071	4.428441
75.71846	8803.734	17.12761	73.09433	4.336774
75.77245	8806.735	16.96855	68.82549	4.246944
75.82645	8809.587	16.78091	64.69375	4.158888
75.88043	8812.287	16.56426	60.69285	4.072564
75.93443	8814.837	16.33137	56.81684	3.988117
75.98842	8817.247	16.09392	53.06018	3.905752
76.04241	8819.525	15.8581	49.41752	3.82589
76.09641	8821.679	15.61729	45.88381	3.74904
76.15039	8823.716	15.36483	42.45418	3.675894
76.20438	8825.64	15.09652	39.12407	3.607157
76.25838	8827.447	14.81578	35.88906	3.543584
76.31237	8829.13	14.52958	32.74501	3.485825
76.36636	8830.682	14.24716	29.68786	3.434469
76.42035	8832.097	13.97742	26.71381	3.389856
76.47434	8833.367	13.72237	23.81919	3.352102
76.52834	8834.483	13.47919	21.0006	3.320881
76.58233	8835.444	13.24085	18.25477	3.295502
76.63632	8836.253	13.00217	15.5787	3.274832
76.69031	8836.908	12.75655	12.96945	3.2575
76.7443	8837.412	12.50335	10.42423	3.241886
76.79829	8837.761	12.24495	7.940352	3.226201
76.85229	8837.947	11.9918	5.515135	3.208691
76.90628	8837.96	11.75094	3.146005	3.187623
76.96027	8837.777	11.52249	0.8304776	3.161356
77.01426	8837.387	11.30538	-1.433885	3.128522
77.06825	8836.78	11.10661	-3.64942	3.087953
77.12225	8835.963	10.93985	-5.818336	3.038733
77.17624	8834.945	10.82168	-7.94278	2.980336
77.23022	8833.733	10.75839	-10.02469	2.912442
77.28422	8832.337	10.74772	-12.06587	2.835038
77.33821	8830.763	10.7911	-14.06782	2.748219
77.3922	8829.026	10.88767	-16.03179	2.652305
77.4462	8827.148	11.03638	-17.95871	2.547659
77.50018	8825.157	11.2382	-19.8492	2.434833
77.55418	8823.082	11.49793	-21.70354	2.314367
77.60817	8820.945	11.82986	-23.52174	2.186953
77.66216	8818.761	12.2516	-25.30348	2.053295
77.71616	8816.54	12.76918	-27.04826	1.914312
77.77014	8814.281	13.37418	-28.75536	1.770992
77.82413	8811.986	14.0422	-30.4239	1.624542
77.87813	8809.657	14.74035	-32.05285	1.476198
77.93212	8807.296	15.44425	-33.64114	1.327368
77.98611	8804.912	16.14032	-35.18761	1.179471
78.0401	8802.514	16.81985	-36.69121	1.034132
78.09409	8800.105	17.47186	-38.15087	0.8930762
78.14809	8797.688	18.08759	-39.56571	0.7583402
78.20208	8795.265	18.66431	-40.93497	0.6322358
78.25607	8792.83	19.19528	-42.25817	0.5177348
78.31007	8790.379	19.67278	-43.53496	0.418817
78.36405	8787.905	20.09625	-44.76526	0.3411537
78.41805	8785.408	20.47176	-45.94913	0.2915888
78.47204	8782.879	20.80776	-47.08675	0.2741339
78.52603	8780.304	21.10788	-48.17845	0.284171
78.58002	8777.665	21.37183	-49.22462	0.3102233
78.63401	8774.951	21.59063	-50.22573	0.3416073
78.688	8772.158	21.74119	-51.18236	0.3715501
78.742	8769.288	21.79122	-52.09518	0.3964395
78.79599	8766.341	21.71843	-52.96492	0.4145864
78.84998	8763.321	21.52032	-53.79248	0.4254046
78.90397	8760.231	21.19327	-54.57884	0.4290178
78.95796	8757.076	20.73554	-55.32513	0.4260498
79.01196	8753.848	20.15686	-56.03259	0.4175049
79.06595	8750.541	19.47725	-56.70256	0.4048153
79.11994	8747.156	18.7311	-57.33643	0.3898935
79.17393	8743.697	17.95276	-57.93568	0.3751392
79.22792	8740.155	17.16604	-58.50174	0.3635182
79.28191	8736.527	16.39218	-59.036	0.3583297
79.33591	8732.815	15.65357	-59.53971	0.3627464
79.3899	8729.021	14.9657	-60.01398	0.37896
79.44389	8725.151	14.33669	-60.45969	0.4076288
79.49788	8721.216	13.76367	-60.87762	0.4478282
79.55187	8717.24	13.23837	-61.2683	0.4976542
79.60587	8713.252	12.75318	-61.63218	0.5548087
79.65986	8709.278	12.31551	-61.96953	0.6169872
79.71384	8705.338	11.94861	-62.28055	0.6820092
79.76784	8701.448	11.67924	-62.56526	0.74788
79.82183	8697.617	11.51108	-62.82362	0.8127837
79.87582	8693.846	11.43288	-63.05548	0.8751006
79.92982	8690.136	11.42953	-63.26064	0.9333676
79.9838	8686.495	11.48548	-63.43888	0.9862873
80.0378	8682.919	11.58833	-63.58998	1.032692
80.09179	8679.39	11.72723	-63.71379	1.071557
80.14578	8675.888	11.90102	-63.81024	1.102019
80.19978	8672.396	12.1101	-63.87937	1.123415
80.25376	8668.898	12.35631	-63.92139	1.135246
80.30775	8665.375	12.63664	-63.93667	1.137214
80.36175	8661.817	12.93778	-63.9258	1.12918
80.41574	8658.228	13.24289	-63.88958	1.11125
80.46973	8654.612	13.54255	-63.82906	1.083829
80.52372	8650.978	13.83602	-63.74553	1.047631
80.57771	8647.345	14.12952	-63.64051	1.003833
80.63171	8643.734	14.43019	-63.51567	0.9540982
80.6857	8640.166	14.7334	-63.37288	0.9006686
80.73969	8636.636	15.03158	-63.21413	0.846503
80.79369	8633.129	15.31769	-63.04152	0.795341
80.84767	8629.63	15.5871	-62.85727	0.7516494
80.90166	8626.12	15.82568	-62.66371	0.7203302
80.95566	8622.588	16.02351	-62.46325	0.7059539
81.00965	8619.029	16.17031	-62.25837	0.7115772
81.06364	8615.447	16.26084	-62.05161	0.7377765
81.11763	8611.855	16.3011	-61.84548	0.7825157
81.17162	8608.262	16.30027	-61.64254	0.8420633
81.22562	8604.674	16.26277	-61.44523	0.9120805
81.27961	8601.097	16.19255	-61.25594	0.9884828
81.3336	8597.539	16.09727	-61.07691	1.06779
81.38759	8594.006	15.99034	-60.91022	1.147217
81.44158	8590.494	15.89411	-60.75779	1.2246
81.49557	8587.005	15.82398	-60.62126	1.298288
81.54957	8583.545	15.78158	-60.50213	1.367066
81.60356	8580.127	15.75305	-60.40164	1.430085
81.65755	8576.767	15.71618	-60.32085	1.486825
81.71154	8573.481	15.65314	-60.26064	1.537019
81.76553	8570.285	15.55473	-60.22165	1.580604
81.81953	8567.179	15.41776	-60.20435	1.617651
81.87352	8564.169	15.2419	-60.20909	1.648384
81.92751	8561.259	15.03038	-60.23613	1.673123
81.9815	8558.448	14.78537	-60.28573	1.692315
82.03549	8555.729	14.51598	-60.35805	1.706432
82.08949	8553.093	14.23506	-60.45333	1.716003
82.14348	8550.527	13.95963	-60.57181	1.721479
82.19746	8548.018	13.71486	-60.71378	1.723291
82.25146	8545.543	13.52726	-60.87957	1.721746
82.30545	8543.082	13.41143	-61.06961	1.717143
82.35944	8540.616	13.36159	-61.28433	1.709717
82.41344	8538.129	13.36581	-61.52428	1.699723
82.46742	8535.599	13.41083	-61.7901	1.687443
82.52142	8533.019	13.48387	-62.08257	1.673042
82.57541	8530.389	13.5767	-62.40257	1.656662
82.6294	8527.719	13.68464	-62.75111	1.638419
82.6834	8525.014	13.79668	-63.12917	1.618305
82.73738	8522.277	13.89089	-63.53779	1.596285
82.79137	8519.512	13.95235	-63.97803	1.572323
82.84537	8516.715	13.97287	-64.45091	1.546307
82.89936	8513.876	13.95951	-64.9575	1.518187
82.95335	8510.978	13.93905	-65.49885	1.487827
83.00735	8507.995	13.93877	-66.07608	1.45512
83.06133	8504.894	13.98167	-66.69021	1.419847
83.11533	8501.641	14.08198	-67.34229	1.381866
83.16932	8498.222	14.24584	-68.03326	1.341031
83.22331	8494.638	14.47215	-68.7641	1.297326
83.27731	8490.909	14.75301	-69.53564	1.250807
83.33129	8487.063	15.0757	-70.34865	1.201659
83.38528	8483.132	15.4332	-71.20377	1.150104
83.43928	8479.142	15.82501	-72.10148	1.096523
83.49327	8475.118	16.24958	-73.04212	1.041345
83.54726	8471.073	16.69853	-74.02583	0.9850999
83.60125	8467.019	17.15621	-75.05254	0.9283745
83.65524	8462.957	17.60101	-76.122	0.8717893
83.70924	8458.889	18.02848	-77.23373	0.8159396
83.76323	8454.802	18.44275	-78.387	0.761399
83.81722	8450.686	18.84869	-79.58085	0.708636
83.87121	8446.524	19.24285	-80.81409	0.6580153
83.9252	8442.309	19.61217	-82.08539	0.609708
83.97919	8438.04	19.94126	-83.39321	0.5637342
84.03319	8433.727	20.21487	-84.73593	0.5199466
84.08718	8429.38	20.43052	-86.11182	0.4781017
84.14117	8425.01	20.59624	-87.5191	0.4378757
84.19516	8420.612	20.73684	-88.95601	0.3989539
84.24915	8416.177	20.87244	-90.42078	0.3611598
84.30315	8411.696	21.018	-91.91168	0.3245983
84.35714	8407.168	21.16923	-93.42694	0.2898928
84.41113	8402.58	21.30523	-94.96482	0.2585211
84.46512	8397.919	21.3972	-96.5236	0.2332101
84.51911	8393.172	21.42882	-98.1015	0.2181826
84.5731	8388.332	21.39732	-99.69678	0.2181977
84.6271	8383.388	21.30124	-101.3076	0.2360829
84.68108	8378.324	21.13184	-102.9322	0.2711155
84.73508	8373.126	20.8751	-104.5685	0.3202167
84.78907	8367.781	20.51559	-106.2145	0.380109
84.84306	8362.289	20.0565	-107.8681	0.4482546
84.89706	8356.668	19.51797	-109.5272	0.5227957
84.95104	8350.941	18.93274	-111.1894	0.6024116
85.00504	8345.127	18.33904	-112.8527	0.6861216
85.05903	8339.227	17.76891	-114.5148	0.7731737
85.11302	8333.23	17.24262	-116.1736	0.8629511
85.16702	8327.122	16.76793	-117.8268	0.9549299
85.221	8320.896	16.34452	-119.4725	1.048617
85.27499	8314.553	15.9697	-121.1086	1.143526
85.32899	8308.096	15.64284	-122.7332	1.239167
85.38298	8301.525	15.35763	-124.3446	1.335034
85.43697	8294.841	15.10423	-125.9409	1.430602
85.49097	8288.038	14.86488	-127.5206	1.525299
85.54495	8281.104	14.61443	-129.0822	1.618548
85.59895	8274.043	14.32897	-130.6242	1.709764
85.65294	8266.858	13.99852	-132.1453	1.798327
85.70693	8259.559	13.64174	-133.6445	1.883687
85.76093	8252.147	13.29226	-135.1205	1.9653
85.81491	8244.623	12.98816	-136.5726	2.042715
85.8689	8236.976	12.76455	-137.9999	2.115582
85.9229	8229.207	12.64139	-139.4014	2.183673
85.97689	8221.31	12.6287	-140.7765	2.246882
86.03088	8213.287	12.72744	-142.1245	2.305205
86.08487	8205.137	12.92291	-143.4448	2.358684
86.13886	8196.857	13.19228	-144.7369	2.407396
86.19286	8188.44	13.50992	-146.0004	2.451435
86.24685	8179.877	13.85652	-147.2351	2.490819
86.30084	8171.16	14.21624	-148.4409	2.525565
86.35483	8162.295	14.57079	-149.6178	2.555661
86.40882	8153.295	14.90295	-150.7658	2.581086
86.46281	8144.172	15.19773	-151.8852	2.601782
86.51681	8134.937	15.44479	-152.9764	2.617764
86.5708	8125.611	15.6425	-154.0397	2.629095
86.62479	8116.211	15.79733	-155.0757	2.635908
86.67878	8106.759	15.918	-156.0847	2.638449
86.73277	8097.272	16.0134	-157.0671	2.63702
86.78677	8087.764	16.09362	-158.0233	2.631969
86.84076	8078.243	16.16936	-158.9538	2.623675
86.89474	8068.726	16.2515	-159.8586	2.612477
86.94874	8059.229	16.34595	-160.738	2.598637
87.00273	8049.773	16.45174	-161.5919	2.582372
87.05672	8040.366	16.56258	-162.4203	2.563915
87.11072	8031.007	16.66911	-163.223	2.543447
87.1647	8021.689	16.75383	-163.9998	2.521191
87.2187	8012.409	16.80394	-164.7503	2.497329
87.27269	8003.166	16.82202	-165.4742	2.4721
87.32668	7993.962	16.81177	-166.1712	2.445668
87.38068	7984.803	16.77599	-166.841	2.418258
87.43466	7975.693	16.72134	-167.4833	2.389988
87.48866	7966.641	16.65036	-168.0981	2.360955
87.54265	7957.654	16.56474	-168.6853	2.331119
87.59664	7948.748	16.46751	-169.2449	2.30035
87.65063	7939.926	16.36594	-169.7771	2.268444
87.70462	7931.177	16.26638	-170.2823	2.235129
87.75861	7922.481	16.17304	-170.7613	2.200088
87.81261	7913.809	16.08531	-171.2148	2.162994
87.8666	7905.135	15.998	-171.6439	2.123527
87.92059	7896.44	15.90769	-172.0498	2.081364
87.97459	7887.707	15.81751	-172.4338	2.036255
88.02857	7878.925	15.72721	-172.7973	1.988017
88.08257	7870.089	15.6345	-173.1419	1.936586
88.13656	7861.192	15.53419	-173.469	1.881994
88.19055	7852.229	15.41669	-173.7803	1.824343
88.24454	7843.192	15.27209	-174.0772	1.763824
88.29853	7834.077	15.09889	-174.3613	1.700671
88.35252	7824.878	14.90916	-174.634	1.635146
88.40652	7815.604	14.72486	-174.8968	1.567525
88.46051	7806.255	14.56231	-175.151	1.498047
88.5145	7796.836	14.43136	-175.3979	1.426948
88.56849	7787.347	14.33706	-175.6386	1.354462
88.62248	7777.788	14.27772	-175.8742	1.280818
88.67648	7768.159	14.24912	-176.1053	1.206301
88.73047	7758.454	14.24617	-176.3325	1.131178
88.78446	7748.669	14.26808	-176.5562	1.055811
88.83845	7738.802	14.31539	-176.7766	0.9806176
88.89244	7728.863	14.38725	-176.9938	0.9060907
88.94643	7718.862	14.48851	-177.2076	0.8327538
89.00043	7708.812	14.62903	-177.4177	0.7612436
89.05442	7698.721	14.81542	-177.6237	0.6922813
89.10841	7688.604	15.05246	-177.8248	0.6266543
89.1624	7678.478	15.34236	-178.0203	0.5653464
89.21639	7668.368	15.68655	-178.2092	0.5094333
89.27039	7658.283	16.07716	-178.3904	0.4601027
89.32438	7648.234	16.49552	-178.5629	0.4185832
89.37836	7638.218	16.9173	-178.7254	0.3860713
89.43236	7628.229	17.32068	-178.8766	0.3634759
89.48635	7618.256	17.69055	-179.0153	0.3512195
89.54034	7608.306	18.01996	-179.1402	0.3490419
89.59434	7598.381	18.30593	-179.2501	0.3560089
89.64832	7588.492	18.54616	-179.3439	0.3708104
89.70232	7578.64	18.73837	-179.4207	0.3921063
89.75631	7568.829	18.87785	-179.4798	0.4188344
89.8103	7559.045	18.96263	-179.5208	0.4502555
89.8643	7549.283	19.00091	-179.5435	0.4860375
89.91828	7539.531	19.0058	-179.5481	0.5261146
89.97227	7529.792	18.98621	-179.535	0.5705876
90.02627	7520.072	18.94997	-179.5049	0.6195152
90.08026	7510.37	18.90606	-179.4588	0.67278
90.13425	7500.671	18.85851	-179.3977	0.7300507
90.18824	7490.964	18.80798	-179.3232	0.7907225
90.24223	7481.228	18.75502	-179.2366	0.8540376
90.29623	7471.455	18.70029	-179.1397	0.9190868
90.35022	7461.635	18.64369	-179.0342	0.9848952
90.40421	7451.772	18.57827	-178.922	1.050496
90.45821	7441.867	18.49249	-178.8049	1.115
90.51219	7431.923	18.37914	-178.6848	1.177623
90.56618	7421.95	18.24031	-178.5635	1.237724
90.62018	7411.963	18.08463	-178.4426	1.294749
90.67417	7401.98	17.92355	-178.3235	1.348261
90.72816	7392.02	17.77158	-178.2075	1.397923
90.78215	7382.097	17.63885	-178.0959	1.443459
90.83614	7372.218	17.52743	-177.9894	1.484702
90.89014	7362.384	17.43106	-177.8889	1.521451
90.94413	7352.598	17.33903	-177.7951	1.553579
90.99812	7342.866	17.23394	-177.7085	1.580919
91.05211	7333.194	17.10159	-177.6295	1.603312
91.1061	7323.593	16.93564	-177.5583	1.620618
91.1601	7314.074	16.73191	-177.4953	1.63271
91.21409	7304.646	16.48482	-177.4405	1.639505
91.26808	7295.315	16.18916	-177.3941	1.640963
91.32207	7286.087	15.84069	-177.356	1.637099
91.37606	7276.956	15.44195	-177.3262	1.628026
91.43005	7267.901	15.00411	-177.3046	1.613857
91.48405	7258.903	14.53723	-177.2907	1.594821
91.53804	7249.951	14.05104	-177.2843	1.571107
91.59203	7241.037	13.55215	-177.2849	1.543041
91.64602	7232.151	13.04952	-177.2918	1.510908
91.70001	7223.285	12.55469	-177.3047	1.475114
91.75401	7214.414	12.07925	-177.3228	1.436054
91.808	7205.512	11.63379	-177.3456	1.394183
91.86198	7196.559	11.23015	-177.3726	1.349932
91.91598	7187.533	10.87708	-177.4035	1.303749
91.96997	7178.434	10.58209	-177.4378	1.256077
92.02396	7169.268	10.35115	-177.4755	1.20741
92.07796	7160.042	10.1867	-177.5164	1.158289
92.13194	7150.76	10.0885	-177.5608	1.109274
92.18594	7141.419	10.05486	-177.6087	1.060997
92.23993	7132.016	10.08508	-177.6606	1.014135
92.29392	7122.543	10.18013	-177.7167	0.9694337
92.34792	7112.997	10.33803	-177.7775	0.9277237
92.4019	7103.375	10.55201	-177.8433	0.8899605
92.45589	7093.676	10.80596	-177.9539	0.8825442
92.50989	7083.907	11.08821	-178.0567	0.8864443
92.56388	7074.067	11.38995	-178.1541	0.8991911
92.61787	7064.16	11.70394	-178.2486	0.9185808
92.67186	7054.195	12.0278	-178.342	0.9430333
92.72585	7044.2	12.35947	-178.4357	0.9716162
92.77985	7034.2	12.69689	-178.5304	1.003748
92.83384	7024.213	13.03671	-178.6266	1.039132
92.88783	7014.242	13.36816	-178.7246	1.077559
92.94183	7004.279	13.67724	-178.8245	1.118875
92.99581	6994.312	13.95536	-178.9261	1.162937
93.0498	6984.338	14.19803	-179.0295	1.209585
93.1038	6974.354	14.40035	-179.1344	1.258648
93.15779	6964.364	14.55768	-179.2408	1.309976
93.21178	6954.371	14.66975	-179.3485	1.363369
93.26577	6944.385	14.73713	-179.4573	1.418656
93.31976	6934.415	14.75927	-179.567	1.475671
93.37376	6924.472	14.74604	-179.6775	1.534259
93.42775	6914.553	14.7114	-179.7886	1.594263
93.48174	6904.663	14.67136	-179.9002	1.655568
93.53573	6894.797	14.63716	-180.0122	1.718027
93.58972	6884.944	14.61547	-180.1243	1.781546
93.64371	6875.104	14.60979	-180.2365	1.846038
93.69771	6865.273	14.625	-180.3487	1.911416
93.7517	6855.444	14.66448	-180.4607	1.977587
93.80569	6845.623	14.72368	-180.5723	2.044494
93.85968	6835.809	14.78608	-180.6835	2.112061
93.91367	6826.007	14.83199	-180.7941	2.180251
93.96767	6816.213	14.84794	-180.9041	2.248989
94.02166	6806.432	14.83069	-181.0132	2.318247
94.07565	6796.677	14.75802	-181.1214	2.38798
94.12964	6787.007	14.66177	-181.2287	2.458165
94.18363	6777.397	14.56077	-181.3348	2.528769
94.23763	6767.822	14.46374	-181.4398	2.599756
94.29162	6758.265	14.37432	-181.5435	2.671103
94.3456	6748.716	14.2939	-181.646	2.742799
94.3996	6739.17	14.2228	-181.747	2.814828
94.45359	6729.621	14.16078	-181.8467	2.887154
94.50758	6720.065	14.10786	-181.945	2.959792
94.56158	6710.504	14.06337	-182.0417	3.032714
94.61556	6700.937	14.02754	-182.137	3.105911
94.66956	6691.364	14.00016	-182.2308	3.179382
94.72355	6681.787	13.98016	-182.323	3.253116
94.77754	6672.208	13.96775	-182.4137	3.3271
94.83154	6662.627	13.96251	-182.5029	3.401333
94.88552	6653.046	13.96552	-182.5905	3.475822
94.93951	6643.467	13.97735	-182.6767	3.550555
94.99351	6633.891	13.99874	-182.7614	3.625516
