T[Â°C]	350nm [counts / mm]	S.D.	First derivative	S.D. of first derivative
20.00047	4387.824		-68.3679	
20.05458	4384.234		-68.25051	
20.10868	4380.652		-68.13308	
20.16279	4377.078		-68.01559	
20.2169	4373.512		-67.89808	
20.27101	4369.953		-67.78055	
20.32511	4366.402		-67.66302	
20.37922	4362.857		-67.54552	
20.43333	4359.317		-67.42807	
20.48743	4355.78		-67.31069	
20.54154	4352.244		-67.19341	
20.59565	4348.706		-67.07625	
20.64976	4345.163		-66.95924	
20.70386	4341.615		-66.84241	
20.75797	4338.058		-66.72579	
20.81208	4334.493		-66.60941	
20.86618	4330.921		-66.4933	
20.92029	4327.362		-66.37749	
20.9744	4323.853		-66.26199	
21.0285	4320.333		-66.14686	
21.08261	4316.8		-66.0321	
21.13672	4313.251		-65.91773	
21.19082	4309.684		-65.8038	
21.24493	4306.102		-65.69031	
21.29904	4302.503		-65.57728	
21.35315	4298.889		-65.46473	
21.40725	4295.259		-65.35268	
21.46136	4291.618		-65.24113	
21.51547	4287.968		-65.13011	
21.56957	4284.313		-65.01962	
21.62368	4280.667		-64.90968	
21.67779	4277.032		-64.80028	
21.7319	4273.413		-64.69144	
21.786	4269.809		-64.58313	
21.84011	4266.226		-64.47536	
21.89422	4262.673		-64.36808	
21.94832	4259.152		-64.26125	
22.00243	4255.669		-64.15482	
22.05654	4252.221		-64.04871	
22.11064	4248.805		-63.94282	
22.16475	4245.418		-63.83702	
22.21886	4242.062		-63.73117	
22.27296	4238.738		-63.62508	
22.32707	4235.443		-63.5185	
22.38118	4232.163		-63.41117	
22.43529	4228.886		-63.3028	
22.48939	4225.609		-63.19309	
22.5435	4222.334		-63.08187	
22.59761	4219.067		-62.96918	
22.65171	4215.803		-62.88782	
22.70582	4212.538		-62.80891	
22.75993	4209.275		-62.73247	
22.81404	4206.011		-62.65849	
22.86814	4202.735		-62.58696	
22.92225	4199.434		-62.5178	
22.97636	4196.097		-62.45091	
23.03046	4192.723		-62.38613	
23.08457	4189.318		-62.32325	
23.13868	4185.898		-62.26206	
23.19278	4182.479		-62.20235	
23.24689	4179.071		-62.1439	
23.301	4175.683		-62.08654	
23.3551	4172.326		-62.03013	
23.40921	4169.014		-61.97453	
23.46332	4165.755		-61.91967	
23.51743	4162.546		-61.86549	
23.57153	4159.378		-61.81199	
23.62564	4156.24		-61.75914	
23.67975	4153.111		-61.70694	
23.73385	4149.956		-61.6554	
23.78796	4146.75		-61.60457	
23.84207	4143.473		-61.55455	
23.89618	4140.123		-61.50543	
23.95028	4136.712		-61.45729	
24.00439	4133.26		-61.41021	
24.0585	4129.78		-61.36426	
24.1126	4126.29		-61.31943	
24.16671	4122.807		-61.27571	
24.22082	4119.359		-61.23305	
24.27492	4115.972		-61.19135	
24.32903	4112.646		-61.1505	
24.38314	4109.356		-61.11041	
24.43724	4106.069		-61.071	
24.49135	4102.756		-61.03221	
24.54546	4099.399		-60.99397	
24.59957	4095.987		-60.95625	
24.65367	4092.518		-60.919	
24.70778	4089.007		-60.88219	
24.76189	4085.481		-60.84579	
24.81599	4081.967		-60.80981	
24.8701	4078.485		-60.77421	
24.92421	4075.051		-60.73893	
24.97832	4071.669		-60.70389	
25.03242	4068.343		-60.66901	
25.08653	4065.079		-60.63424	
25.14064	4061.878		-60.59951	
25.19474	4058.728		-60.56476	
25.24885	4055.608		-60.5299	
25.30296	4052.49		-60.49483	
25.35706	4049.351		-60.45938	
25.41117	4046.177		-60.42336	
25.46528	4042.969		-60.38653	
25.51938	4039.732		-60.34866	
25.57349	4036.478		-60.30956	
25.6276	4033.223		-60.26912	
25.68171	4029.981		-60.22735	
25.73581	4026.765		-60.1844	
25.78992	4023.574		-60.1405	
25.84403	4020.406		-60.09599	
25.89813	4017.261		-60.05124	
25.95224	4014.138		-60.00663	
26.00635	4011.031		-59.96256	
26.06046	4007.926		-59.91939	
26.11456	4004.805		-59.87744	
26.16867	4001.66		-59.83696	
26.22278	3998.488		-59.79816	
26.27688	3995.291		-59.7612	
26.33099	3992.068		-59.72623	
26.3851	3988.823		-59.69341	
26.43921	3985.568		-59.66291	
26.49331	3982.32		-59.63487	
26.54742	3979.09		-59.60942	
26.60152	3975.884		-59.58667	
26.65563	3972.697		-59.56666	
26.70974	3969.522		-59.5494	
26.76385	3966.352		-59.53488	
26.81795	3963.176		-59.52303	
26.87206	3959.988		-59.51369	
26.92617	3956.774		-59.50666	
26.98027	3953.519		-59.50169	
27.03438	3950.22		-59.49847	
27.08849	3946.886		-59.49673	
27.1426	3943.531		-59.49612	
27.1967	3940.174		-59.49624	
27.25081	3936.828		-59.49664	
27.30492	3933.501		-59.49685	
27.35902	3930.202		-59.49633	
27.41313	3926.938		-59.49459	
27.46724	3923.715		-59.49113	
27.52135	3920.528		-59.48547	
27.57545	3917.367		-59.47725	
27.62956	3914.225		-59.46616	
27.68367	3911.097		-59.45203	
27.73777	3907.983		-59.43476	
27.79188	3904.874		-59.41435	
27.84599	3901.763		-59.39091	
27.90009	3898.633		-59.36462	
27.9542	3895.476		-59.33575	
28.00831	3892.291		-59.30468	
28.06241	3889.081		-59.27179	
28.11652	3885.857		-59.23751	
28.17063	3882.625		-59.20229	
28.22474	3879.385		-59.16653	
28.27884	3876.137		-59.13067	
28.33295	3872.874		-59.09511	
28.38706	3869.589		-59.06022	
28.44116	3866.283		-59.02636	
28.49527	3862.961		-58.99384	
28.54938	3859.631		-58.96297	
28.60349	3856.302		-58.93401	
28.65759	3852.986		-58.90718	
28.7117	3849.685		-58.88266	
28.76581	3846.398		-58.8606	
28.81991	3843.124		-58.84105	
28.87402	3839.855		-58.82402	
28.92813	3836.584		-58.80947	
28.98223	3833.314		-58.79728	
29.03634	3830.049		-58.78735	
29.09045	3826.797		-58.77953	
29.14455	3823.568		-58.77365	
29.19866	3820.372		-58.76953	
29.25277	3817.217		-58.76694	
29.30688	3814.106		-58.76563	
29.36098	3811.044		-58.76536	
29.41509	3808.031		-58.76587	
29.4692	3805.061		-58.76687	
29.5233	3802.12		-58.76808	
29.57741	3799.198		-58.76915	
29.63152	3796.28		-58.76978	
29.68563	3793.354		-58.76963	
29.73973	3790.413		-58.76839	
29.79384	3787.454		-58.76579	
29.84795	3784.467		-58.76162	
29.90205	3781.44		-58.7557	
29.95616	3778.36		-58.74796	
30.01027	3775.229		-58.73835	
30.06437	3772.059		-58.72689	
30.11848	3768.867		-58.71366	
30.17259	3765.669		-58.69875	
30.22669	3762.481		-58.68232	
30.2808	3759.312		-58.66454	
30.33491	3756.155		-58.64563	
30.38902	3753.003		-58.62577	
30.44312	3749.844		-58.60514	
30.49723	3746.664		-58.58392	
30.55134	3743.448		-58.56223	
30.60544	3740.19		-58.5402	
30.65955	3736.895		-58.51791	
30.71366	3733.575		-58.49543	
30.76777	3730.243		-58.47275	
30.82187	3726.907		-58.44987	
30.87598	3723.57		-58.42673	
30.93009	3720.238		-58.40329	
30.98419	3716.917		-58.3795	
31.0383	3713.61		-58.35537	
31.09241	3710.315		-58.33091	
31.14651	3707.032		-58.30615	
31.20062	3703.76		-58.28112	
31.25473	3700.503		-58.25581	
31.30883	3697.264		-58.23017	
31.36294	3694.048		-58.20413	
31.41705	3690.856		-58.17752	
31.47116	3687.685		-58.15014	
31.52526	3684.53		-58.12172	
31.57937	3681.379		-58.09202	
31.63348	3678.221		-58.06079	
31.68758	3675.047		-58.02782	
31.74169	3671.86		-57.99295	
31.7958	3668.673		-57.95605	
31.84991	3665.496		-57.91705	
31.90401	3662.336		-57.87592	
31.95812	3659.194		-57.83267	
32.01223	3656.075		-57.78732	
32.06633	3652.98		-57.73991	
32.12044	3649.902		-57.69054	
32.17455	3646.836		-57.63933	
32.22865	3643.778		-57.58645	
32.28276	3640.721		-57.5321	
32.33687	3637.654		-57.47649	
32.39098	3634.574		-57.41981	
32.44508	3631.484		-57.36225	
32.49919	3628.391		-57.30397	
32.5533	3625.309		-57.24515	
32.6074	3622.245		-57.18602	
32.66151	3619.201		-57.12685	
32.71562	3616.177		-57.06789	
32.76972	3613.177		-57.00943	
32.82383	3610.197		-56.95173	
32.87794	3607.235		-56.89507	
32.93204	3604.297		-56.83969	
32.98615	3601.381		-56.78592	
33.04026	3598.481		-56.73408	
33.09436	3595.59		-56.68453	
33.14847	3592.695		-56.6376	
33.20258	3589.78		-56.59366	
33.25669	3586.83		-56.55301	
33.31079	3583.838		-56.51592	
33.3649	3580.802		-56.4826	
33.41901	3577.726		-56.45317	
33.47311	3574.621		-56.42769	
33.52722	3571.5		-56.40614	
33.58133	3568.37		-56.38845	
33.63544	3565.235		-56.37444	
33.68954	3562.1		-56.36391	
33.74365	3558.969		-56.35658	
33.79776	3555.846		-56.3521	
33.85186	3552.728		-56.35011	
33.90597	3549.608		-56.35017	
33.96008	3546.483		-56.35186	
34.01418	3543.356		-56.35468	
34.06829	3540.232		-56.35815	
34.1224	3537.116		-56.36179	
34.17651	3534.015		-56.36514	
34.23061	3530.937		-56.36773	
34.28472	3527.883		-56.36915	
34.33883	3524.853		-56.369	
34.39293	3521.841		-56.36693	
34.44704	3518.837		-56.36259	
34.50115	3515.839		-56.35573	
34.55526	3512.846		-56.3461	
34.60936	3509.86		-56.33352	
34.66347	3506.883		-56.31782	
34.71758	3503.918		-56.29887	
34.77168	3500.963		-56.27654	
34.82579	3498.012		-56.25069	
34.8799	3495.058		-56.22126	
34.934	3492.094		-56.18825	
34.98811	3489.11		-56.15176	
35.04222	3486.102		-56.11198	
35.09632	3483.066		-56.06923	
35.15043	3480		-56.02391	
35.20454	3476.906		-55.97647	
35.25864	3473.789		-55.92746	
35.31275	3470.656		-55.87743	
35.36686	3467.52		-55.827	
35.42097	3464.388		-55.77681	
35.47507	3461.26		-55.7275	
35.52918	3458.13		-55.67968	
35.58329	3454.993		-55.63392	
35.63739	3451.845		-55.59068	
35.6915	3448.689		-55.55036	
35.74561	3445.531		-55.51322	
35.79972	3442.373		-55.47943	
35.85382	3439.217		-55.44908	
35.90793	3436.06		-55.42214	
35.96204	3432.905		-55.39851	
36.01614	3429.768		-55.37801	
36.07025	3426.665		-55.36047	
36.12436	3423.609		-55.34566	
36.17846	3420.602		-55.33337	
36.23257	3417.643		-55.32336	
36.28668	3414.732		-55.31539	
36.34079	3411.87		-55.30925	
36.39489	3409.05		-55.30476	
36.449	3406.265		-55.30176	
36.50311	3403.507		-55.3001	
36.55721	3400.77		-55.29961	
36.61132	3398.04		-55.30009	
36.66543	3395.302		-55.3013	
36.71954	3392.537		-55.30291	
36.77364	3389.736		-55.30455	
36.82775	3386.896		-55.30584	
36.88186	3384.027		-55.30638	
36.93596	3381.138		-55.30583	
36.99007	3378.242		-55.30384	
37.04418	3375.349		-55.30014	
37.09828	3372.467		-55.29447	
37.15239	3369.595		-55.28663	
37.2065	3366.729		-55.27649	
37.2606	3363.856		-55.26394	
37.31471	3360.969		-55.24895	
37.36882	3358.062		-55.23159	
37.42292	3355.125		-55.212	
37.47703	3352.148		-55.19035	
37.53114	3349.127		-55.16687	
37.58525	3346.061		-55.14176	
37.63935	3342.955		-55.1152	
37.69346	3339.817		-55.08736	
37.74757	3336.663		-55.05834	
37.80167	3333.508		-55.02822	
37.85578	3330.362		-54.99704	
37.90989	3327.232		-54.96478	
37.964	3324.116		-54.93141	
38.0181	3321.017		-54.89686	
38.07221	3317.937		-54.86102	
38.12632	3314.878		-54.82375	
38.18042	3311.838		-54.78488	
38.23453	3308.814		-54.74426	
38.28864	3305.8		-54.70176	
38.34274	3302.782		-54.65725	
38.39685	3299.749		-54.61065	
38.45096	3296.693		-54.56191	
38.50507	3293.61		-54.51106	
38.55917	3290.498		-54.45815	
38.61328	3287.355		-54.4033	
38.66739	3284.188		-54.34665	
38.72149	3281.014		-54.28838	
38.7756	3277.856		-54.22868	
38.82971	3274.734		-54.16777	
38.88382	3271.66		-54.10592	
38.93792	3268.629		-54.04336	
38.99203	3265.63		-53.9803	
39.04613	3262.653		-53.91693	
39.10024	3259.698		-53.8534	
39.15435	3256.765		-53.78984	
39.20846	3253.863		-53.7264	
39.26256	3250.997		-53.66319	
39.31667	3248.167		-53.60035	
39.37078	3245.366		-53.53807	
39.42488	3242.582		-53.47654	
39.47899	3239.804		-53.41601	
39.5331	3237.03		-53.35673	
39.5872	3234.26		-53.29898	
39.64131	3231.495		-53.24309	
39.69542	3228.737		-53.18936	
39.74953	3225.992		-53.13812	
39.80363	3223.269		-53.08966	
39.85774	3220.573		-53.04424	
39.91185	3217.899		-53.00208	
39.96595	3215.247		-52.96332	
40.02006	3212.611		-52.92798	
40.07417	3209.983		-52.89605	
40.12828	3207.355		-52.86746	
40.18238	3204.72		-52.84209	
40.23649	3202.069		-52.81983	
40.2906	3199.393		-52.80049	
40.3447	3196.688		-52.78387	
40.39881	3193.964		-52.76977	
40.45292	3191.232		-52.75796	
40.50702	3188.494		-52.74824	
40.56113	3185.744		-52.74041	
40.61524	3182.97		-52.7343	
40.66935	3180.167		-52.72977	
40.72345	3177.33		-52.72671	
40.77756	3174.458		-52.72504	
40.83167	3171.563		-52.72472	
40.88577	3168.66		-52.72569	
40.93988	3165.759		-52.72788	
40.99399	3162.862		-52.73122	
41.0481	3159.967		-52.73555	
41.1022	3157.069		-52.74066	
41.15631	3154.165		-52.7463	
41.21041	3151.253		-52.75219	
41.26452	3148.328		-52.75806	
41.31863	3145.39		-52.76363	
41.37274	3142.438		-52.76866	
41.42684	3139.472		-52.77289	
41.48095	3136.498		-52.77606	
41.53506	3133.521		-52.77793	
41.58916	3130.542		-52.77829	
41.64327	3127.564		-52.77693	
41.69738	3124.582		-52.77368	
41.75148	3121.593		-52.76839	
41.80559	3118.597		-52.76087	
41.8597	3115.589		-52.75092	
41.91381	3112.567		-52.7383	
41.96791	3109.533		-52.72275	
42.02202	3106.491		-52.70398	
42.07613	3103.446		-52.68175	
42.13023	3100.403		-52.65583	
42.18434	3097.374		-52.62602	
42.23845	3094.368		-52.59214	
42.29256	3091.395		-52.55405	
42.34666	3088.457		-52.51165	
42.40077	3085.557		-52.46489	
42.45488	3082.697		-52.41375	
42.50898	3079.87		-52.35822	
42.56309	3077.075		-52.29836	
42.6172	3074.31		-52.23425	
42.6713	3071.567		-52.16606	
42.72541	3068.834		-52.09395	
42.77952	3066.103		-52.01818	
42.83363	3063.368		-51.93899	
42.88773	3060.624		-51.85672	
42.94184	3057.87		-51.77174	
42.99594	3055.111		-51.68444	
43.05005	3052.354		-51.59521	
43.10416	3049.617		-51.50452	
43.15827	3046.916		-51.41283	
43.21238	3044.255		-51.3207	
43.26648	3041.63		-51.22876	
43.32059	3039.029		-51.13765	
43.37469	3036.434		-51.04802	
43.4288	3033.827		-50.96054	
43.48291	3031.19		-50.87584	
43.53702	3028.514		-50.79451	
43.59113	3025.803		-50.7171	
43.64523	3023.065		-50.64414	
43.69934	3020.301		-50.57602	
43.75344	3017.51		-50.5131	
43.80755	3014.701		-50.45559	
43.86166	3011.887		-50.40362	
43.91576	3009.083		-50.35724	
43.96987	3006.302		-50.31642	
44.02398	3003.55		-50.28107	
44.07809	3000.824		-50.25104	
44.13219	2998.118		-50.22611	
44.1863	2995.428		-50.20602	
44.24041	2992.756		-50.19044	
44.29451	2990.098		-50.179	
44.34862	2987.457		-50.17125	
44.40273	2984.829		-50.16672	
44.45684	2982.208		-50.1649	
44.51094	2979.592		-50.1653	
44.56505	2976.975		-50.16739	
44.61916	2974.351		-50.17068	
44.67326	2971.714		-50.17466	
44.72737	2969.065		-50.17887	
44.78148	2966.41		-50.18285	
44.83559	2963.759		-50.18618	
44.88969	2961.118		-50.18849	
44.9438	2958.486		-50.18943	
44.99791	2955.856		-50.18871	
45.05201	2953.223		-50.18609	
45.10612	2950.585		-50.18137	
45.16022	2947.946		-50.17443	
45.21433	2945.306		-50.16521	
45.26844	2942.666		-50.15372	
45.32255	2940.025		-50.14	
45.37666	2937.376		-50.1242	
45.43076	2934.706		-50.10652	
45.48487	2932		-50.08722	
45.53897	2929.252		-50.06659	
45.59308	2926.466		-50.04497	
45.64719	2923.646		-50.0227	
45.7013	2920.788		-50.00012	
45.75541	2917.892		-49.97757	
45.80951	2914.96		-49.95531	
45.86362	2912		-49.93359	
45.91772	2909.024		-49.91264	
45.97183	2906.051		-49.89259	
46.02594	2903.097		-49.87356	
46.08005	2900.176		-49.85559	
46.13415	2897.295		-49.83867	
46.18826	2894.457		-49.82268	
46.24237	2891.664		-49.80743	
46.29647	2888.908		-49.79267	
46.35058	2886.182		-49.77809	
46.40469	2883.475		-49.76337	
46.45879	2880.78		-49.74817	
46.5129	2878.094		-49.73218	
46.56701	2875.417		-49.71507	
46.62112	2872.751		-49.69656	
46.67522	2870.098		-49.67641	
46.72933	2867.455		-49.65446	
46.78344	2864.825		-49.6306	
46.83754	2862.213		-49.60477	
46.89165	2859.624		-49.57697	
46.94576	2857.059		-49.54723	
46.99987	2854.518		-49.51565	
47.05397	2851.999		-49.48233	
47.10808	2849.498		-49.44738	
47.16219	2847.003		-49.41089	
47.21629	2844.502		-49.37297	
47.2704	2841.987		-49.33371	
47.32451	2839.452		-49.29324	
47.37861	2836.891		-49.25173	
47.43272	2834.3		-49.20938	
47.48683	2831.68		-49.16644	
47.54094	2829.03		-49.12322	
47.59504	2826.355		-49.08006	
47.64915	2823.663		-49.03734	
47.70325	2820.965		-48.99548	
47.75736	2818.276		-48.95486	
47.81147	2815.603		-48.91588	
47.86558	2812.948		-48.87893	
47.91969	2810.308		-48.84431	
47.97379	2807.682		-48.81232	
48.0279	2805.064		-48.78312	
48.082	2802.438		-48.7568	
48.13611	2799.797		-48.73334	
48.19022	2797.139		-48.7126	
48.24433	2794.47		-48.69435	
48.29843	2791.799		-48.67826	
48.35254	2789.127		-48.66395	
48.40665	2786.456		-48.65102	
48.46075	2783.781		-48.63902	
48.51486	2781.103		-48.62753	
48.56897	2778.423		-48.61614	
48.62307	2775.749		-48.60448	
48.67718	2773.089		-48.59224	
48.73129	2770.445		-48.57916	
48.7854	2767.817		-48.56506	
48.8395	2765.201		-48.5498	
48.89361	2762.594		-48.53331	
48.94772	2759.99		-48.51552	
49.00182	2757.387		-48.4964	
49.05593	2754.783		-48.47591	
49.11004	2752.176		-48.45402	
49.16415	2749.562		-48.4307	
49.21825	2746.938		-48.40595	
49.27236	2744.303		-48.37973	
49.32647	2741.66		-48.35205	
49.38057	2739.011		-48.32291	
49.43468	2736.364		-48.29237	
49.48879	2733.72		-48.26046	
49.54289	2731.078		-48.22725	
49.597	2728.437		-48.19285	
49.65111	2725.797		-48.15739	
49.70522	2723.157		-48.12103	
49.75932	2720.515		-48.08397	
49.81343	2717.87		-48.0464	
49.86753	2715.218		-48.00853	
49.92164	2712.56		-47.97057	
49.97575	2709.898		-47.93269	
50.02986	2707.234		-47.89501	
50.08397	2704.572		-47.85763	
50.13807	2701.915		-47.82057	
50.19218	2699.269		-47.78382	
50.24628	2696.641		-47.74735	
50.30039	2694.037		-47.71109	
50.3545	2691.458		-47.67495	
50.40861	2688.904		-47.63886	
50.46271	2686.372		-47.60275	
50.51682	2683.86		-47.56654	
50.57093	2681.365		-47.53022	
50.62503	2678.885		-47.49384	
50.67914	2676.425		-47.45744	
50.73325	2673.979		-47.42113	
50.78735	2671.54		-47.38506	
50.84146	2669.099		-47.34936	
50.89557	2666.648		-47.31416	
50.94968	2664.183		-47.27958	
51.00378	2661.699		-47.24573	
51.05789	2659.197		-47.21273	
51.112	2656.678		-47.18068	
51.1661	2654.145		-47.14964	
51.22021	2651.596		-47.11965	
51.27432	2649.037		-47.09068	
51.32843	2646.47		-47.06266	
51.38253	2643.9		-47.03546	
51.43664	2641.331		-47.00891	
51.49075	2638.762		-46.98283	
51.54485	2636.194		-46.95702	
51.59896	2633.625		-46.93125	
51.65307	2631.055		-46.9053	
51.70717	2628.485		-46.87889	
51.76128	2625.921		-46.85172	
51.81539	2623.365		-46.8235	
51.8695	2620.816		-46.79394	
51.9236	2618.273		-46.76275	
51.97771	2615.733		-46.72965	
52.03181	2613.193		-46.69436	
52.08592	2610.649		-46.6566	
52.14003	2608.098		-46.61609	
52.19414	2605.54		-46.57264	
52.24825	2602.985		-46.52606	
52.30235	2600.444		-46.47625	
52.35646	2597.923		-46.42313	
52.41056	2595.423		-46.36671	
52.46467	2592.943		-46.30701	
52.51878	2590.479		-46.24416	
52.57289	2588.024		-46.17831	
52.62699	2585.578		-46.10969	
52.6811	2583.134		-46.03859	
52.73521	2580.687		-45.96534	
52.78931	2578.229		-45.89032	
52.84342	2575.755		-45.81392	
52.89753	2573.264		-45.73658	
52.95163	2570.752		-45.65871	
53.00574	2568.214		-45.58076	
53.05985	2565.644		-45.50321	
53.11396	2563.041		-45.42655	
53.16806	2560.405		-45.35126	
53.22217	2557.748		-45.27777	
53.27628	2555.081		-45.20648	
53.33038	2552.418		-45.13767	
53.38449	2549.771		-45.0716	
53.4386	2547.149		-45.00845	
53.49271	2544.562		-44.94835	
53.54681	2542.01		-44.89136	
53.60092	2539.489		-44.83747	
53.65503	2536.996		-44.78659	
53.70913	2534.533		-44.73856	
53.76324	2532.105		-44.69318	
53.81735	2529.712		-44.65022	
53.87145	2527.352		-44.60943	
53.92556	2525.023		-44.57056	
53.97967	2522.72		-44.53334	
54.03378	2520.443		-44.49752	
54.08788	2518.192		-44.46285	
54.14199	2515.968		-44.42908	
54.19609	2513.772		-44.39603	
54.2502	2511.606		-44.3635	
54.30431	2509.467		-44.33136	
54.35842	2507.345		-44.29951	
54.41253	2505.23		-44.26784	
54.46663	2503.115		-44.23626	
54.52074	2500.993		-44.20475	
54.57484	2498.864		-44.17327	
54.62895	2496.725		-44.14186	
54.68306	2494.571		-44.11061	
54.73717	2492.388		-44.07964	
54.79127	2490.163		-44.04913	
54.84538	2487.883		-44.01927	
54.89949	2485.542		-43.99032	
54.95359	2483.148		-43.96255	
55.0077	2480.715		-43.93626	
55.06181	2478.256		-43.91176	
55.11591	2475.779		-43.8894	
55.17002	2473.284		-43.86946	
55.22413	2470.778		-43.85221	
55.27824	2468.263		-43.83781	
55.33234	2465.746		-43.82633	
55.38645	2463.236		-43.81775	
55.44056	2460.741		-43.81195	
55.49466	2458.264		-43.80868	
55.54877	2455.796		-43.80762	
55.60288	2453.326		-43.80835	
55.65699	2450.844		-43.81034	
55.71109	2448.347		-43.81303	
55.7652	2445.839		-43.8158	
55.81931	2443.333		-43.81799	
55.87341	2440.842		-43.81897	
55.92752	2438.373		-43.81812	
55.98163	2435.926		-43.81483	
56.03573	2433.495		-43.80856	
56.08984	2431.078		-43.79881	
56.14395	2428.675		-43.78511	
56.19806	2426.291		-43.76709	
56.25216	2423.936		-43.74447	
56.30627	2421.605		-43.71702	
56.36037	2419.291		-43.68458	
56.41448	2416.981		-43.64703	
56.46859	2414.663		-43.60431	
56.5227	2412.324		-43.55642	
56.57681	2409.96		-43.50341	
56.63091	2407.572		-43.44541	
56.68502	2405.167		-43.38264	
56.73912	2402.757		-43.3154	
56.79323	2400.351		-43.24407	
56.84734	2397.957		-43.16911	
56.90145	2395.578		-43.09102	
56.95555	2393.216		-43.01037	
57.00966	2390.87		-42.92776	
57.06377	2388.536		-42.84388	
57.11787	2386.205		-42.75941	
57.17198	2383.87		-42.67508	
57.22609	2381.523		-42.59155	
57.28019	2379.158		-42.50945	
57.3343	2376.774		-42.42933	
57.38841	2374.379		-42.35165	
57.44252	2371.983		-42.27678	
57.49662	2369.6		-42.20502	
57.55073	2367.237		-42.13656	
57.60484	2364.898		-42.07156	
57.65894	2362.583		-42.01007	
57.71305	2360.293		-41.95207	
57.76716	2358.034		-41.8975	
57.82127	2355.815		-41.84623	
57.87537	2353.64		-41.79811	
57.92948	2351.509		-41.75295	
57.98359	2349.416		-41.71051	
58.03769	2347.352		-41.67056	
58.0918	2345.301		-41.63284	
58.14591	2343.246		-41.59708	
58.20001	2341.176		-41.56306	
58.25412	2339.089		-41.53054	
58.30823	2336.983		-41.49932	
58.36234	2334.864		-41.46924	
58.41644	2332.739		-41.44013	
58.47055	2330.616		-41.41182	
58.52465	2328.501		-41.38419	
58.57876	2326.397		-41.35711	
58.63287	2324.301		-41.33053	
58.68698	2322.205		-41.30439	
58.74109	2320.099		-41.27868	
58.79519	2317.976		-41.25338	
58.8493	2315.825		-41.22848	
58.9034	2313.649		-41.20395	
58.95751	2311.449		-41.17975	
59.01162	2309.225		-41.15586	
59.06573	2306.975		-41.13227	
59.11983	2304.7		-41.10893	
59.17394	2302.404		-41.0858	
59.22805	2300.09		-41.06281	
59.28215	2297.761		-41.03986	
59.33626	2295.423		-41.01684	
59.39037	2293.078		-40.99362	
59.44447	2290.734		-40.97007	
59.49858	2288.397		-40.94605	
59.55269	2286.073		-40.92142	
59.6068	2283.761		-40.896	
59.6609	2281.458		-40.86957	
59.71501	2279.16		-40.8419	
59.76912	2276.866		-40.81272	
59.82322	2274.573		-40.78172	
59.87733	2272.279		-40.74863	
59.93144	2269.983		-40.71315	
59.98555	2267.69		-40.67501	
60.03965	2265.407		-40.63395	
60.09376	2263.136		-40.58971	
60.14787	2260.875		-40.54199	
60.20197	2258.621		-40.49055	
60.25608	2256.376		-40.43515	
60.31019	2254.137		-40.37561	
60.3643	2251.9		-40.31181	
60.4184	2249.664		-40.24369	
60.47251	2247.428		-40.17121	
60.52662	2245.194		-40.09442	
60.58072	2242.965		-40.01337	
60.63483	2240.743		-39.92814	
60.68893	2238.533		-39.83884	
60.74304	2236.336		-39.74555	
60.79715	2234.152		-39.64839	
60.85126	2231.979		-39.54744	
60.90536	2229.822		-39.44279	
60.95947	2227.683		-39.33451	
61.01358	2225.562		-39.22269	
61.06768	2223.453		-39.10737	
61.12179	2221.347		-38.9886	
61.1759	2219.242		-38.86641	
61.23001	2217.137		-38.74081	
61.28411	2215.035		-38.61184	
61.33822	2212.937		-38.47955	
61.39233	2210.849		-38.34399	
61.44643	2208.778		-38.20523	
61.50054	2206.728		-38.06336	
61.55465	2204.698		-37.91843	
61.60876	2202.687		-37.77044	
61.66286	2200.693		-37.61938	
61.71697	2198.719		-37.46517	
61.77108	2196.763		-37.30774	
61.82518	2194.82		-37.14703	
61.87929	2192.885		-36.98297	
61.9334	2190.954		-36.81552	
61.9875	2189.02		-36.64463	
62.04161	2187.078		-36.47027	
62.09572	2185.129		-36.29239	
62.14983	2183.172		-36.11092	
62.20393	2181.209		-35.92581	
62.25804	2179.247		-35.73701	
62.31215	2177.29		-35.54446	
62.36625	2175.342		-35.34811	
62.42036	2173.406		-35.14791	
62.47447	2171.478		-34.94376	
62.52858	2169.554		-34.73553	
62.58268	2167.632		-34.52303	
62.63679	2165.713		-34.30596	
62.6909	2163.802		-34.084	
62.745	2161.897		-33.85673	
62.79911	2159.991		-33.62368	
62.85322	2158.078		-33.3843	
62.90732	2156.154		-33.138	
62.96143	2154.223		-32.88406	
63.01554	2152.294		-32.62178	
63.06964	2150.372		-32.35041	
63.12375	2148.463		-32.06914	
63.17786	2146.575		-31.77717	
63.23196	2144.716		-31.47361	
63.28607	2142.888		-31.15763	
63.34018	2141.097		-30.82839	
63.39429	2139.343		-30.48507	
63.44839	2137.626		-30.12686	
63.5025	2135.945		-29.75298	
63.55661	2134.295		-29.36259	
63.61071	2132.668		-28.95484	
63.66482	2131.058		-28.52895	
63.71893	2129.46		-28.08412	
63.77304	2127.874		-27.61959	
63.82714	2126.302		-27.13473	
63.88125	2124.742		-26.62886	
63.93536	2123.194		-26.1015	
63.98946	2121.661		-25.5522	
64.04357	2120.146		-24.98056	
64.09768	2118.655		-24.38622	
64.15179	2117.195		-23.76885	
64.20589	2115.77		-23.12819	
64.25999	2114.383		-22.46404	
64.3141	2113.029		-21.77596	
64.36821	2111.702		-21.06379	
64.42232	2110.393		-20.32722	
64.47643	2109.09		-19.56593	
64.53053	2107.781		-18.77957	
64.58464	2106.46		-17.96773	
64.63875	2105.131		-17.12995	
64.69286	2103.804		-16.26568	
64.74696	2102.492		-15.37434	
64.80107	2101.212		-14.45522	
64.85518	2099.984		-13.50755	
64.90928	2098.822		-12.53068	
64.96339	2097.738		-11.52337	
65.01749	2096.737		-10.48479	
65.0716	2095.823		-9.413904	
65.12571	2094.995		-8.309618	
65.17982	2094.249		-7.170817	
65.23392	2093.581		-5.99636	
65.28803	2092.99		-4.785065	
65.34214	2092.477		-3.5357	
65.39625	2092.045		-2.246976	
65.45036	2091.696		-0.9175416	
65.50446	2091.43		0.4538185	
65.55856	2091.243		1.868944	
65.61267	2091.136		3.329133	
65.66678	2091.114		4.835898	
65.72089	2091.181		6.390759	
65.77499	2091.345		7.995209	
65.8291	2091.611		9.650691	
65.88321	2091.973		11.35858	
65.93732	2092.425		13.12016	
65.99142	2092.956		14.93669	
66.04553	2093.558		16.80934	
66.09964	2094.229		18.73926	
66.15374	2094.965		20.72716	
66.20785	2095.769		22.7747	
66.26196	2096.646		24.8826	
66.31606	2097.6		27.05185	
66.37017	2098.625		29.28343	
66.42428	2099.715		31.57832	
66.47839	2100.872		33.93748	
66.53249	2102.108		36.36186	
66.5866	2103.443		38.85235	
66.64071	2104.891		41.40985	
66.69482	2106.461		44.03523	
66.74892	2108.16		46.72897	
66.80302	2109.997		49.49273	
66.85713	2111.982		52.32701	
66.91124	2114.124		55.23278	
66.96535	2116.43		58.21101	
67.01945	2118.904		61.26272	
67.07356	2121.548		64.38893	
67.12767	2124.362		67.59068	
67.18178	2127.352		70.86897	
67.23589	2130.523		74.22483	
67.28999	2133.876		77.65929	
67.3441	2137.408		81.17339	
67.3982	2141.125		84.76764	
67.45231	2145.037		88.44411	
67.50642	2149.147		92.20329	
67.56052	2153.459		96.04611	
67.61463	2157.975		99.97344	
67.66874	2162.696		103.986	
67.72285	2167.625		108.0845	
67.77695	2172.766		112.2694	
67.83106	2178.13		116.5411	
67.88517	2183.727		120.8998	
67.93928	2189.564		125.3455	
67.99338	2195.652		129.8775	
68.04749	2202.004		134.4967	
68.10159	2208.626		139.2021	
68.1557	2215.521		143.9929	
68.20981	2222.697		148.8685	
68.26392	2230.167		153.828	
68.31802	2237.943		158.8701	
68.37213	2246.025		163.9939	
68.42624	2254.4		169.1977	
68.48035	2263.055		174.48	
68.53445	2271.983		179.8391	
68.58856	2281.184		185.273	
68.64266	2290.665		190.7787	
68.69677	2300.442		196.3555	
68.75088	2310.536		202.0002	
68.80499	2320.97		207.7102	
68.85909	2331.764		213.4829	
68.9132	2342.932		219.3158	
68.96731	2354.479		225.2061	
69.02142	2366.396		231.1513	
69.07552	2378.666		237.1484	
69.12963	2391.271		243.1945	
69.18374	2404.202		249.2868	
69.23784	2417.453		255.4209	
69.29195	2431.032		261.5954	
69.34605	2444.941		267.8058	
69.40016	2459.185		274.0481	
69.45427	2473.78		280.3184	
69.50838	2488.746		286.6122	
69.56248	2504.107		292.9246	
69.61659	2519.885		299.2505	
69.6707	2536.096		305.5842	
69.72481	2552.75		311.9195	
69.77892	2569.849		318.2497	
69.83302	2587.39		324.5677	
69.88712	2605.364		330.8649	
69.94123	2623.775		337.1347	
69.99534	2642.606		343.3675	
70.04945	2661.839		349.554	
70.10355	2681.451		355.6843	
70.15766	2701.424		361.7482	
70.21177	2721.745		367.7347	
70.26588	2742.412		373.6328	
70.31998	2763.434		379.4304	
70.37409	2784.83		385.1154	
70.4282	2806.611		390.675	
70.4823	2828.781		396.0955	
70.53641	2851.351		401.365	
70.59052	2874.315		406.4691	
70.64462	2897.664		411.394	
70.69873	2921.384		416.1262	
70.75284	2945.464		420.6518	
70.80695	2969.894		424.9575	
70.86105	2994.658		429.0302	
70.91516	3019.743		432.8573	
70.96927	3045.137		436.4267	
71.02338	3070.837		439.7271	
71.07748	3096.842		442.7477	
71.13158	3123.146		445.4782	
71.18569	3149.752		447.9104	
71.2398	3176.655		450.0356	
71.29391	3203.864		451.8465	
71.34801	3231.385		453.3368	
71.40212	3259.233		454.5012	
71.45623	3287.418		455.3355	
71.51034	3315.944		455.8364	
71.56445	3344.795		456.0017	
71.61855	3373.942		455.8306	
71.67266	3403.34		455.3229	
71.72676	3432.933		454.4798	
71.78087	3462.67		453.3032	
71.83498	3492.492		451.7961	
71.88908	3522.351		449.9625	
71.94319	3552.206		447.807	
71.9973	3582.019		445.3352	
72.05141	3611.751		442.5533	
72.10551	3641.36		439.4683	
72.15962	3670.8		436.0877	
72.21373	3700.02		432.4196	
72.26784	3728.971		428.4723	
72.32195	3757.601		424.2548	
72.37605	3785.852		419.7768	
72.43015	3813.667		415.0464	
72.48426	3840.98		410.0737	
72.53837	3867.732		404.8685	
72.59248	3893.87		399.4408	
72.64658	3919.344		393.8006	
72.70069	3944.104		387.9583	
72.7548	3968.111		381.9242	
72.80891	3991.326		375.7088	
72.86301	4013.712		369.323	
72.91712	4035.244		362.7776	
72.97122	4055.907		356.0848	
73.02533	4075.711		349.2539	
73.07944	4094.671		342.2975	
73.13354	4112.807		335.2274	
73.18765	4130.136		328.0558	
73.24176	4146.676		320.7952	
73.29587	4162.443		313.4582	
73.34998	4177.456		306.0576	
73.40408	4191.737		298.6068	
73.45819	4205.32		291.1191	
73.5123	4218.241		283.6083	
73.56641	4230.536		276.0883	
73.62051	4242.241		268.5743	
73.67461	4253.396		261.0783	
73.72872	4264.029		253.6158	
73.78283	4274.168		246.2006	
73.83694	4283.836		238.8468	
73.89104	4293.054		231.5681	
73.94515	4301.853		224.3777	
73.99926	4310.27		217.2883	
74.05337	4318.346		210.3125	
74.10748	4326.124		203.4617	
74.16158	4333.65		196.7471	
74.21568	4340.968		190.1799	
74.26979	4348.116		183.7677	
74.3239	4355.116		177.5198	
74.37801	4361.976		171.4439	
74.43211	4368.69		165.5466	
74.48622	4375.248		159.8334	
74.54033	4381.64		154.3087	
74.59444	4387.855		148.9762	
74.64854	4393.888		143.8382	
74.70265	4399.739		138.8961	
74.75676	4405.415		134.1503	
74.81086	4410.916		129.6007	
74.86497	4416.246		125.2446	
74.91908	4421.408		121.0798	
74.97318	4426.406		117.103	
75.02729	4431.255		113.3098	
75.0814	4435.97		109.6952	
75.13551	4440.559		106.2535	
75.18961	4445.022		102.9784	
75.24372	4449.361		99.86333	
75.29783	4453.576		96.90119	
75.35194	4457.668		94.08484	
75.40604	4461.636		91.40702	
75.46014	4465.472		88.86089	
75.51425	4469.168		86.43859	
75.56836	4472.727		84.13354	
75.62247	4476.167		81.93893	
75.67657	4479.518		79.8482	
75.73068	4482.814		77.85492	
75.78479	4486.084		75.95294	
75.8389	4489.347		74.13634	
75.89301	4492.609		72.39943	
75.94711	4495.878		70.73683	
76.00122	4499.157		69.14347	
76.05532	4502.448		67.61479	
76.10943	4505.75		66.14592	
76.16354	4509.055		64.73296	
76.21764	4512.347		63.3721	
76.27175	4515.607		62.05983	
76.32586	4518.815		60.79292	
76.37997	4521.96		59.56842	
76.43407	4525.041		58.38364	
76.48818	4528.065		57.23615	
76.54229	4531.04		56.12373	
76.5964	4533.97		55.04437	
76.65051	4536.858		53.99628	
76.70461	4539.704		52.97795	
76.75871	4542.505		51.98765	
76.81282	4545.265		51.02421	
76.86693	4547.967		50.08648	
76.92104	4550.598		49.17346	
76.97514	4553.155		48.28429	
77.02925	4555.637		47.41818	
77.08336	4558.047		46.57441	
77.13747	4560.388		45.75232	
77.19157	4562.668		44.95129	
77.24568	4564.897		44.17083	
77.29978	4567.088		43.41064	
77.35389	4569.257		42.67025	
77.408	4571.415		41.94965	
77.4621	4573.564		41.24886	
77.51621	4575.699		40.568	
77.57032	4577.805		39.90728	
77.62443	4579.869		39.26699	
77.67854	4581.884		38.64751	
77.73264	4583.854		38.04922	
77.78675	4585.783		37.4726	
77.84086	4587.676		36.91808	
77.89497	4589.537		36.38615	
77.94907	4591.366		35.87736	
78.00317	4593.165		35.392	
78.05728	4594.938		34.93058	
78.11139	4596.693		34.49349	
78.1655	4598.439		34.08105	
78.2196	4600.169		33.69352	
78.27371	4601.866		33.33108	
78.32782	4603.512		32.99387	
78.38193	4605.094		32.68198	
78.43604	4606.599		32.39545	
78.49014	4608.025		32.13425	
78.54424	4609.376		31.89827	
78.59835	4610.656		31.68722	
78.65246	4611.878		31.50083	
78.70657	4613.058		31.33873	
78.76067	4614.217		31.20053	
78.81478	4615.368		31.08582	
78.86889	4616.509		30.99418	
78.923	4617.634		30.92525	
78.9771	4618.749		30.87861	
79.03121	4619.854		30.85385	
79.08532	4620.946		30.85053	
79.13943	4622.025		30.86825	
79.19353	4623.099		30.90659	
79.24763	4624.176		30.96518	
79.30174	4625.265		31.04366	
79.35585	4626.377		31.14173	
79.40996	4627.533		31.2591	
79.46407	4628.757		31.3955	
79.51817	4630.073		31.55063	
79.57228	4631.495		31.72416	
79.62639	4633.026		31.91569	
79.6805	4634.663		32.12482	
79.7346	4636.39		32.35109	
79.7887	4638.189		32.59396	
79.84281	4640.053		32.85294	
79.89692	4641.978		33.12738	
79.95103	4643.956		33.41658	
80.00513	4645.979		33.71982	
80.05924	4648.04		34.0363	
80.11335	4650.139		34.36513	
80.16746	4652.274		34.70527	
80.22157	4654.438		35.05556	
80.27567	4656.619		35.41464	
80.32978	4658.807		35.78107	
80.38389	4660.985		36.15322	
80.43799	4663.142		36.52931	
80.4921	4665.268		36.90755	
80.5462	4667.358		37.28586	
80.60031	4669.417		37.66216	
80.65442	4671.456		38.03428	
80.70853	4673.49		38.40007	
80.76263	4675.534		38.75741	
80.81674	4677.599		39.10422	
80.87085	4679.696		39.43851	
80.92496	4681.835		39.7583	
80.97906	4684.023		40.06168	
81.03316	4686.261		40.34674	
81.08727	4688.547		40.61182	
81.14138	4690.88		40.85518	
81.19549	4693.258		41.07532	
81.2496	4695.672		41.27082	
81.3037	4698.111		41.44046	
81.35781	4700.564		41.58313	
81.41192	4703.03		41.69798	
81.46603	4705.508		41.78428	
81.52013	4707.998		41.8415	
81.57424	4710.501		41.86921	
81.62835	4713.024		41.86716	
81.68245	4715.567		41.83522	
81.73656	4718.125		41.77334	
81.79066	4720.693		41.68154	
81.84477	4723.269		41.55994	
81.89888	4725.856		41.40876	
81.95299	4728.448		41.22827	
82.0071	4731.037		41.01883	
82.0612	4733.611		40.78083	
82.11531	4736.169		40.5147	
82.16942	4738.711		40.22083	
82.22353	4741.242		39.8996	
82.27763	4743.765		39.55133	
82.33173	4746.288		39.17615	
82.38584	4748.816		38.7742	
82.43995	4751.352		38.34548	
82.49406	4753.892		37.88986	
82.54816	4756.439		37.4071	
82.60227	4758.989		36.8969	
82.65638	4761.533		36.35887	
82.71049	4764.045		35.7926	
82.7646	4766.501		35.19768	
82.8187	4768.887		34.57373	
82.87281	4771.198		33.92036	
82.92691	4773.425		33.2373	
82.98102	4775.566		32.52399	
83.03513	4777.614		31.78015	
83.08923	4779.567		31.0054	
83.14334	4781.425		30.19939	
83.19745	4783.19		29.36174	
83.25156	4784.869		28.49208	
83.30566	4786.48		27.59007	
83.35977	4788.033		26.65542	
83.41388	4789.541		25.688	
83.46799	4791.002		24.68777	
83.52209	4792.411		23.65498	
83.57619	4793.754		22.58963	
83.6303	4795.024		21.49232	
83.68441	4796.213		20.36361	
83.73852	4797.318		19.20421	
83.79263	4798.333		18.01493	
83.84673	4799.259		16.79671	
83.90084	4800.106		15.55059	
83.95495	4800.898		14.27773	
84.00906	4801.651		12.97937	
84.06316	4802.382		11.65686	
84.11727	4803.103		10.3116	
84.17137	4803.819		8.945241	
84.22548	4804.522		7.558867	
84.27959	4805.194		6.154158	
84.33369	4805.808		4.732594	
84.3878	4806.343		3.295636	
84.44191	4806.786		1.844687	
84.49602	4807.132		0.3810889	
84.55013	4807.386		-1.093866	
84.60423	4807.557		-2.578925	
84.65834	4807.645		-4.072882	
84.71245	4807.643		-5.574553	
84.76655	4807.544		-7.082569	
84.82066	4807.354		-8.596219	
84.87476	4807.071		-10.11419	
84.92887	4806.706		-11.6354	
84.98298	4806.258		-13.15884	
85.03709	4805.725		-14.68355	
85.09119	4805.092		-16.20866	
85.1453	4804.346		-17.73337	
85.19941	4803.471		-19.25693	
85.25352	4802.466		-20.77864	
85.30762	4801.329		-22.29785	
85.36173	4800.056		-23.81394	
85.41583	4798.644		-25.32613	
85.46994	4797.097		-26.83429	
85.52405	4795.413		-28.33765	
85.57816	4793.599		-29.83567	
85.63226	4791.666		-31.32777	
85.68637	4789.622		-32.81335	
85.74048	4787.469		-34.29181	
85.79459	4785.203		-35.76251	
85.84869	4782.816		-37.22477	
85.9028	4780.309		-38.67783	
85.95691	4777.693		-40.12085	
86.01101	4774.986		-41.55268	
86.06512	4772.213		-42.97264	
86.11922	4769.4		-44.37939	
86.17333	4766.563		-45.7717	
86.22744	4763.708		-47.14827	
86.28155	4760.825		-48.50775	
86.33566	4757.899		-49.84873	
86.38976	4754.917		-51.16981	
86.44387	4751.86		-52.46961	
86.49798	4748.729		-53.74681	
86.55209	4745.517		-55.00015	
86.60619	4742.226		-56.22845	
86.66029	4738.854		-57.43045	
86.7144	4735.402		-58.60543	
86.76851	4731.876		-59.75226	
86.82262	4728.285		-60.87002	
86.87672	4724.638		-61.95787	
86.93083	4720.949		-63.0151	
86.98494	4717.22		-64.0411	
87.03905	4713.448		-65.0354	
87.09315	4709.625		-65.99766	
87.14726	4705.753		-66.92763	
87.20137	4701.825		-67.82516	
87.25547	4697.85		-68.69006	
87.30958	4693.823		-69.52259	
87.36369	4689.748		-70.32277	
87.41779	4685.628		-71.09087	
87.4719	4681.465		-71.82729	
87.52601	4677.252		-72.53255	
87.58012	4673		-73.20724	
87.63422	4668.716		-73.85207	
87.68833	4664.412		-74.46785	
87.74244	4660.092		-75.0555	
87.79655	4655.763		-75.61601	
87.85065	4651.42		-76.15038	
87.90475	4647.06		-76.65985	
87.95886	4642.663		-77.14542	
88.01297	4638.229		-77.60814	
88.06708	4633.747		-78.04905	
88.12119	4629.221		-78.46915	
88.17529	4624.652		-78.8694	
88.2294	4620.044		-79.25067	
88.28351	4615.399		-79.61376	
88.33762	4610.723		-79.95943	
88.39172	4606.017		-80.2884	
88.44583	4601.29		-80.60136	
88.49993	4596.552		-80.89902	
88.55404	4591.813		-81.18219	
88.60815	4587.082		-81.45157	
88.66225	4582.362		-81.7079	
88.71636	4577.651		-81.95187	
88.77047	4572.959		-82.18414	
88.82458	4568.29		-82.4053	
88.87868	4563.653		-82.61596	
88.93279	4559.054		-82.81673	
88.9869	4554.492		-83.00824	
89.04101	4549.955		-83.19113	
89.09511	4545.438		-83.36609	
89.14922	4540.932		-83.53385	
89.20332	4536.437		-83.69509	
89.25743	4531.955		-83.85049	
89.31154	4527.493		-84.00072	
89.36565	4523.055		-84.14646	
89.41975	4518.649		-84.28837	
89.47386	4514.272		-84.42712	
89.52797	4509.927		-84.56337	
89.58208	4505.604		-84.69775	
89.63618	4501.283		-84.83091	
89.69029	4496.946		-84.96345	
89.74439	4492.576		-85.09592	
89.7985	4488.162		-85.2289	
89.85261	4483.701		-85.36287	
89.90672	4479.192		-85.49825	
89.96082	4474.638		-85.63544	
90.01493	4470.04		-85.7748	
90.06904	4465.413		-85.91665	
90.12315	4460.775		-86.06126	
90.17725	4456.14		-86.20881	
90.23136	4451.514		-86.35941	
90.28547	4446.901		-86.51313	
90.33957	4442.305		-86.66996	
90.39368	4437.721		-86.82993	
90.44778	4433.142		-86.99298	
90.50189	4428.558		-87.15901	
90.556	4423.961		-87.32788	
90.61011	4419.34		-87.49943	
90.66422	4414.684		-87.67342	
90.71832	4409.985		-87.84958	
90.77243	4405.249		-88.02753	
90.82654	4400.476		-88.20692	
90.88065	4395.67		-88.38734	
90.93475	4390.84		-88.56839	
90.98885	4386.004		-88.74972	
91.04296	4381.172		-88.93108	
91.09707	4376.356		-89.11224	
91.15118	4371.55		-89.293	
91.20528	4366.75		-89.47326	
91.25939	4361.946		-89.6529	
91.3135	4357.134		-89.83186	
91.36761	4352.295		-90.01008	
91.42171	4347.416		-90.18757	
91.47582	4342.479		-90.3644	
91.52993	4337.483		-90.54066	
91.58403	4332.424		-90.71642	
91.63814	4327.308		-90.89181	
91.69225	4322.14		-91.06689	
91.74635	4316.94		-91.2417	
91.80046	4311.722		-91.41634	
91.85457	4306.507		-91.59088	
91.90868	4301.309		-91.76539	
91.96278	4296.13		-91.93992	
92.01689	4290.961		-92.1145	
92.071	4285.8		-92.28912	
92.12511	4280.641		-92.46369	
92.17921	4275.48		-92.63815	
92.23331	4270.322		-92.81229	
92.28742	4265.17		-92.986	
92.34153	4260.033		-93.15906	
92.39564	4254.917		-93.33126	
92.44975	4249.821		-93.49654	
92.50385	4244.749		-93.66254	
92.55796	4239.692		-93.82821	
92.61207	4234.647		-93.99284	
92.66618	4229.616		-94.15608	
92.72028	4224.609		-94.31777	
92.77439	4219.634		-94.47788	
92.82849	4214.689		-94.63644	
92.8826	4209.763		-94.79356	
92.93671	4204.843		-94.94934	
92.99081	4199.917		-95.10387	
93.04492	4194.982		-95.25728	
93.09903	4190.033		-95.40966	
93.15314	4185.062		-95.56113	
93.20724	4180.063		-95.7118	
93.26135	4175.044		-95.86177	
93.31546	4170.005		-96.01116	
93.36957	4164.958		-96.16007	
93.42368	4159.903		-96.3086	
93.47778	4154.84		-96.45684	
93.53188	4149.757		-96.60493	
93.58599	4144.642		-96.75292	
93.6401	4139.479		-96.90092	
93.69421	4134.255		-97.04899	
93.74831	4128.959		-97.19722	
93.80242	4123.603		-97.34567	
93.85653	4118.206		-97.4944	
93.91064	4112.793		-97.64347	
93.96474	4107.367		-97.79293	
94.01885	4101.929		-97.94282	
94.07295	4096.48		-98.09315	
94.12706	4090.944		-98.24399	
94.18117	4085.451		-98.39533	
94.23528	4079.988		-98.54719	
94.28938	4074.539		-98.69957	
94.34349	4069.096		-98.85248	
94.3976	4063.654		-99.00591	
94.45171	4058.208		-99.15987	
94.50581	4052.757		-99.31433	
94.55992	4047.299		-99.46929	
94.61403	4041.835		-99.62475	
94.66814	4036.365		-99.78068	
94.72224	4030.89		-99.93704	
94.77634	4025.41		-100.0939	
94.83045	4019.926		-100.2511	
94.88456	4014.439		-100.4088	
94.93867	4008.949		-100.5669	
94.99277	4003.46		-100.7253	
