T[Â°C]	330nm [counts / mm]	S.D.	First derivative	S.D. of first derivative
20.00117	3460.86		-49.49348	
20.05512	3458.153		-49.46232	
20.10906	3455.455		-49.43052	
20.16301	3452.763		-49.39807	
20.21696	3450.08		-49.36494	
20.27091	3447.403		-49.33115	
20.32486	3444.734		-49.29667	
20.3788	3442.071		-49.2615	
20.43275	3439.414		-49.22564	
20.4867	3436.763		-49.1891	
20.54065	3434.115		-49.15187	
20.59459	3431.472		-49.11398	
20.64854	3428.83		-49.07541	
20.70249	3426.191		-49.03619	
20.75644	3423.553		-48.99633	
20.81039	3420.917		-48.95586	
20.86433	3418.286		-48.91478	
20.91828	3415.669		-48.87313	
20.97223	3413.09		-48.83093	
21.02618	3410.624		-48.78822	
21.08013	3408.154		-48.74501	
21.13407	3405.667		-48.70137	
21.18802	3403.154		-48.65731	
21.24197	3400.604		-48.61288	
21.29592	3398.01		-48.56813	
21.34986	3395.362		-48.5231	
21.40381	3392.662		-48.47783	
21.45776	3389.919		-48.43237	
21.51171	3387.14		-48.38677	
21.56566	3384.343		-48.34107	
21.6196	3381.545		-48.29532	
21.67355	3378.753		-48.24958	
21.7275	3375.967		-48.2039	
21.78145	3373.18		-48.15832	
21.8354	3370.39		-48.11289	
21.88934	3367.599		-48.06766	
21.94329	3364.814		-48.02267	
21.99724	3362.047		-47.97797	
22.05119	3359.304		-47.93359	
22.10513	3356.584		-47.88955	
22.15908	3353.879		-47.84585	
22.21303	3351.187		-47.80246	
22.26698	3348.511		-47.75926	
22.32093	3345.862		-47.71607	
22.37487	3343.25		-47.67252	
22.42882	3340.677		-47.62802	
22.48277	3338.148		-47.58169	
22.53672	3335.661		-47.53236	
22.59066	3333.209		-47.47876	
22.64461	3330.783		-47.41768	
22.69856	3328.374		-47.35637	
22.75251	3325.969		-47.29483	
22.80646	3323.553		-47.23315	
22.8604	3321.106		-47.17139	
22.91435	3318.623		-47.10968	
22.9683	3316.111		-47.04816	
23.02225	3313.581		-46.98697	
23.07619	3311.046		-46.9263	
23.13014	3308.521		-46.86637	
23.18409	3306.015		-46.80743	
23.23804	3303.538		-46.74974	
23.29199	3301.086		-46.69362	
23.34593	3298.649		-46.63939	
23.39988	3296.213		-46.58737	
23.45383	3293.766		-46.53792	
23.50778	3291.302		-46.49137	
23.56173	3288.826		-46.44801	
23.61567	3286.347		-46.40809	
23.66962	3283.87		-46.3718	
23.72357	3281.399		-46.33923	
23.77752	3278.938		-46.3104	
23.83146	3276.488		-46.28528	
23.88541	3274.053		-46.26376	
23.93936	3271.63		-46.24572	
23.99331	3269.221		-46.23098	
24.04726	3266.829		-46.21931	
24.1012	3264.448		-46.21046	
24.15515	3262.07		-46.20414	
24.2091	3259.685		-46.20002	
24.26305	3257.287		-46.19776	
24.317	3254.873		-46.19699	
24.37094	3252.436		-46.19735	
24.42489	3249.972		-46.19843	
24.47884	3247.481		-46.19981	
24.53279	3244.966		-46.20107	
24.58673	3242.435		-46.20174	
24.64068	3239.897		-46.20133	
24.69463	3237.366		-46.19937	
24.74858	3234.851		-46.19543	
24.80253	3232.346		-46.1891	
24.85647	3229.843		-46.18002	
24.91042	3227.339		-46.16784	
24.96437	3224.829		-46.15225	
25.01832	3222.312		-46.13301	
25.07227	3219.784		-46.10992	
25.12621	3217.249		-46.08288	
25.18016	3214.71		-46.05186	
25.23411	3212.174		-46.01694	
25.28806	3209.641		-45.97824	
25.342	3207.107		-45.93602	
25.39595	3204.567		-45.89058	
25.4499	3202.018		-45.84234	
25.50385	3199.463		-45.79181	
25.55779	3196.909		-45.73953	
25.61174	3194.354		-45.68605	
25.66569	3191.798		-45.63189	
25.71964	3189.24		-45.57755	
25.77359	3186.675		-45.52341	
25.82753	3184.107		-45.46986	
25.88148	3181.536		-45.41717	
25.93543	3178.958		-45.36562	
25.98938	3176.372		-45.31543	
26.04333	3173.781		-45.2668	
26.09727	3171.187		-45.21988	
26.15122	3168.594		-45.17478	
26.20517	3166.012		-45.13157	
26.25912	3163.45		-45.09031	
26.31306	3160.917		-45.05098	
26.36701	3158.412		-45.01358	
26.42096	3155.929		-44.97802	
26.47491	3153.459		-44.94419	
26.52886	3151.002		-44.91195	
26.5828	3148.563		-44.88113	
26.63675	3146.155		-44.85157	
26.6907	3143.786		-44.82309	
26.74465	3141.462		-44.79556	
26.7986	3139.177		-44.76884	
26.85254	3136.924		-44.74281	
26.90649	3134.698		-44.71733	
26.96044	3132.499		-44.69227	
27.01439	3130.324		-44.66752	
27.06833	3128.173		-44.64299	
27.12228	3126.049		-44.61861	
27.17623	3123.949		-44.59431	
27.23018	3121.861		-44.57004	
27.28413	3119.774		-44.54574	
27.33807	3117.672		-44.52136	
27.39202	3115.541		-44.49689	
27.44597	3113.373		-44.47237	
27.49992	3111.158		-44.44792	
27.55387	3108.894		-44.42369	
27.60781	3106.584		-44.39988	
27.66176	3104.228		-44.37672	
27.71571	3101.833		-44.35449	
27.76966	3099.411		-44.33344	
27.8236	3096.973		-44.31381	
27.87755	3094.53		-44.29588	
27.9315	3092.083		-44.2799	
27.98545	3089.627		-44.26611	
28.03939	3087.155		-44.2548	
28.09334	3084.656		-44.24619	
28.14729	3082.125		-44.24048	
28.20124	3079.568		-44.23784	
28.25519	3076.997		-44.23834	
28.30913	3074.426		-44.242	
28.36308	3071.864		-44.24876	
28.41703	3069.315		-44.25846	
28.47098	3066.776		-44.27086	
28.52493	3064.244		-44.28563	
28.57887	3061.715		-44.3024	
28.63282	3059.19		-44.32078	
28.68677	3056.673		-44.34035	
28.74072	3054.168		-44.36067	
28.79466	3051.672		-44.38132	
28.84861	3049.182		-44.40186	
28.90256	3046.698		-44.42184	
28.95651	3044.226		-44.4408	
29.01046	3041.772		-44.45826	
29.0644	3039.349		-44.47381	
29.11835	3036.96		-44.48706	
29.1723	3034.593		-44.49766	
29.22625	3032.238		-44.50531	
29.2802	3029.885		-44.50974	
29.33414	3027.526		-44.51072	
29.38809	3025.162		-44.50806	
29.44204	3022.795		-44.50163	
29.49599	3020.433		-44.49135	
29.54993	3018.08		-44.47717	
29.60388	3015.737		-44.45905	
29.65783	3013.395		-44.43701	
29.71178	3011.048		-44.41107	
29.76573	3008.696		-44.38129	
29.81967	3006.345		-44.34777	
29.87362	3004.003		-44.31067	
29.92757	3001.679		-44.27027	
29.98152	2999.374		-44.22691	
30.03547	2997.086		-44.18101	
30.08941	2994.807		-44.13304	
30.14336	2992.534		-44.08346	
30.19731	2990.262		-44.03275	
30.25126	2987.979		-43.98137	
30.3052	2985.672		-43.92973	
30.35915	2983.34		-43.87825	
30.4131	2980.982		-43.82727	
30.46705	2978.6		-43.77708	
30.521	2976.194		-43.72791	
30.57494	2973.767		-43.67998	
30.62889	2971.327		-43.63344	
30.68284	2968.883		-43.58842	
30.73679	2966.444		-43.54502	
30.79074	2964.013		-43.50333	
30.84468	2961.59		-43.46338	
30.89863	2959.173		-43.4252	
30.95258	2956.763		-43.38876	
31.00653	2954.361		-43.35405	
31.06047	2951.967		-43.32101	
31.11442	2949.581		-43.28958	
31.16837	2947.2		-43.2597	
31.22232	2944.827		-43.23132	
31.27626	2942.459		-43.20435	
31.33021	2940.089		-43.17873	
31.38416	2937.709		-43.15442	
31.43811	2935.316		-43.13137	
31.49206	2932.913		-43.10955	
31.546	2930.515		-43.08891	
31.59995	2928.139		-43.06934	
31.6539	2925.795		-43.05069	
31.70785	2923.49		-43.03272	
31.7618	2921.222		-43.01514	
31.81574	2918.982		-42.99763	
31.86969	2916.761		-42.97985	
31.92364	2914.548		-42.96149	
31.97759	2912.331		-42.94228	
32.03154	2910.1		-42.92194	
32.08548	2907.854		-42.90025	
32.13943	2905.603		-42.87694	
32.19338	2903.351		-42.85179	
32.24733	2901.095		-42.8246	
32.30127	2898.84		-42.79523	
32.35522	2896.588		-42.76361	
32.40917	2894.34		-42.72975	
32.46312	2892.09		-42.69369	
32.51706	2889.824		-42.65556	
32.57101	2887.536		-42.6155	
32.62496	2885.229		-42.57371	
32.67891	2882.916		-42.53041	
32.73286	2880.606		-42.48589	
32.7868	2878.305		-42.4404	
32.84075	2876.017		-42.39422	
32.8947	2873.744		-42.34763	
32.94865	2871.484		-42.30088	
33.00259	2869.234		-42.25418	
33.05654	2866.991		-42.20776	
33.11049	2864.752		-42.1618	
33.16444	2862.512		-42.11648	
33.21839	2860.267		-42.072	
33.27234	2858.012		-42.02855	
33.32628	2855.747		-41.98632	
33.38023	2853.464		-41.94556	
33.43418	2851.152		-41.9065	
33.48812	2848.813		-41.86937	
33.54207	2846.445		-41.83436	
33.59602	2844.05		-41.80164	
33.64997	2841.639		-41.7713	
33.70392	2839.226		-41.74341	
33.75787	2836.825		-41.71799	
33.81181	2834.442		-41.69498	
33.86576	2832.085		-41.67431	
33.91971	2829.755		-41.65582	
33.97366	2827.445		-41.63929	
34.0276	2825.147		-41.62446	
34.08155	2822.855		-41.61103	
34.1355	2820.564		-41.59866	
34.18945	2818.271		-41.58695	
34.2434	2815.981		-41.57554	
34.29734	2813.701		-41.56404	
34.35129	2811.445		-41.55212	
34.40524	2809.228		-41.53951	
34.45919	2807.054		-41.52599	
34.51313	2804.916		-41.51143	
34.56708	2802.807		-41.49572	
34.62103	2800.721		-41.47881	
34.67498	2798.657		-41.46072	
34.72893	2796.615		-41.44149	
34.78288	2794.593		-41.42123	
34.83682	2792.587		-41.40002	
34.89077	2790.588		-41.37798	
34.94472	2788.583		-41.35523	
34.99866	2786.555		-41.33186	
35.05261	2784.494		-41.30796	
35.10656	2782.393		-41.28366	
35.16051	2780.249		-41.25913	
35.21445	2778.06		-41.23458	
35.2684	2775.825		-41.21023	
35.32235	2773.55		-41.18634	
35.3763	2771.242		-41.16315	
35.43025	2768.915		-41.14095	
35.4842	2766.583		-41.11998	
35.53814	2764.256		-41.10048	
35.59209	2761.936		-41.08268	
35.64604	2759.623		-41.06678	
35.69999	2757.318		-41.05297	
35.75393	2755.019		-41.04143	
35.80788	2752.722		-41.03227	
35.86183	2750.429		-41.02557	
35.91578	2748.137		-41.0213	
35.96973	2745.84		-41.01937	
36.02367	2743.539		-41.01957	
36.07762	2741.242		-41.02166	
36.13157	2738.952		-41.02533	
36.18552	2736.677		-41.03028	
36.23946	2734.419		-41.03616	
36.29341	2732.175		-41.04261	
36.34736	2729.95		-41.04921	
36.40131	2727.746		-41.05557	
36.45526	2725.562		-41.06128	
36.5092	2723.397		-41.06596	
36.56315	2721.248		-41.06926	
36.6171	2719.109		-41.07086	
36.67105	2716.972		-41.07054	
36.72499	2714.825		-41.06807	
36.77894	2712.657		-41.0633	
36.83289	2710.463		-41.0561	
36.88684	2708.244		-41.04639	
36.94079	2706.001		-41.03413	
36.99474	2703.737		-41.01928	
37.04868	2701.457		-41.00186	
37.10263	2699.178		-40.98193	
37.15658	2696.921		-40.95959	
37.21053	2694.698		-40.93498	
37.26447	2692.509		-40.90827	
37.31842	2690.352		-40.87964	
37.37237	2688.219		-40.84927	
37.42632	2686.094		-40.81731	
37.48027	2683.967		-40.78391	
37.53421	2681.831		-40.7492	
37.58816	2679.677		-40.71333	
37.64211	2677.499		-40.67641	
37.69606	2675.298		-40.63858	
37.75	2673.08		-40.59998	
37.80395	2670.851		-40.56074	
37.8579	2668.616		-40.52098	
37.91185	2666.373		-40.48085	
37.96579	2664.122		-40.44048	
38.01974	2661.868		-40.39997	
38.07369	2659.616		-40.35943	
38.12764	2657.374		-40.31897	
38.18159	2655.151		-40.27862	
38.23553	2652.947		-40.23843	
38.28948	2650.754		-40.19835	
38.34343	2648.564		-40.1583	
38.39738	2646.369		-40.11813	
38.45132	2644.165		-40.07767	
38.50527	2641.953		-40.03674	
38.55922	2639.744		-39.99514	
38.61317	2637.55		-39.95274	
38.66712	2635.374		-39.90937	
38.72107	2633.215		-39.86493	
38.77501	2631.072		-39.81932	
38.82896	2628.951		-39.7725	
38.88291	2626.857		-39.72446	
38.93686	2624.789		-39.67527	
38.9908	2622.738		-39.62503	
39.04475	2620.693		-39.57394	
39.0987	2618.642		-39.52222	
39.15265	2616.572		-39.47012	
39.2066	2614.473		-39.4179	
39.26054	2612.344		-39.36584	
39.31449	2610.191		-39.31418	
39.36844	2608.022		-39.26313	
39.42239	2605.843		-39.21292	
39.47633	2603.66		-39.16371	
39.53028	2601.48		-39.11564	
39.58423	2599.303		-39.06883	
39.63818	2597.129		-39.02341	
39.69213	2594.964		-38.9795	
39.74607	2592.816		-38.9372	
39.80002	2590.691		-38.89662	
39.85397	2588.584		-38.85785	
39.90792	2586.492		-38.82101	
39.96186	2584.412		-38.78622	
40.01581	2582.344		-38.7536	
40.06976	2580.288		-38.72326	
40.12371	2578.245		-38.69532	
40.17765	2576.224		-38.66988	
40.23161	2574.22		-38.64704	
40.28555	2572.227		-38.62685	
40.3395	2570.239		-38.60935	
40.39345	2568.248		-38.59449	
40.4474	2566.249		-38.58218	
40.50134	2564.236		-38.57227	
40.55529	2562.214		-38.56455	
40.60924	2560.185		-38.55881	
40.66319	2558.15		-38.55474	
40.71713	2556.105		-38.55201	
40.77108	2554.052		-38.55025	
40.82503	2551.994		-38.5491	
40.87898	2549.938		-38.54819	
40.93293	2547.882		-38.54721	
40.98687	2545.828		-38.54586	
41.04082	2543.777		-38.54392	
41.09477	2541.728		-38.54121	
41.14872	2539.676		-38.53761	
41.20266	2537.624		-38.53302	
41.25661	2535.578		-38.52731	
41.31056	2533.536		-38.52041	
41.36451	2531.493		-38.51223	
41.41846	2529.446		-38.5027	
41.4724	2527.397		-38.49175	
41.52635	2525.35		-38.47932	
41.5803	2523.301		-38.46537	
41.63425	2521.246		-38.44989	
41.68819	2519.181		-38.43287	
41.74214	2517.113		-38.41437	
41.79609	2515.039		-38.39445	
41.85004	2512.962		-38.3732	
41.90399	2510.886		-38.35073	
41.95794	2508.807		-38.32713	
42.01188	2506.715		-38.30247	
42.06583	2504.607		-38.27684	
42.11978	2502.484		-38.25034	
42.17373	2500.342		-38.2231	
42.22767	2498.174		-38.19528	
42.28162	2495.977		-38.1671	
42.33557	2493.754		-38.13877	
42.38952	2491.516		-38.11048	
42.44347	2489.271		-38.08242	
42.49741	2487.025		-38.05475	
42.55136	2484.792		-38.0276	
42.60531	2482.585		-38.00105	
42.65926	2480.41		-37.97515	
42.7132	2478.26		-37.94987	
42.76715	2476.132		-37.92514	
42.8211	2474.023		-37.90085	
42.87505	2471.929		-37.87689	
42.929	2469.853		-37.85314	
42.98294	2467.802		-37.8295	
43.03689	2465.782		-37.80589	
43.09084	2463.785		-37.78229	
43.14479	2461.803		-37.7587	
43.19873	2459.837		-37.73518	
43.25268	2457.886		-37.71184	
43.30663	2455.946		-37.6888	
43.36058	2454.011		-37.66624	
43.41452	2452.076		-37.64429	
43.46848	2450.146		-37.62313	
43.52242	2448.225		-37.60287	
43.57637	2446.315		-37.58368	
43.63032	2444.411		-37.5657	
43.68427	2442.506		-37.54904	
43.73821	2440.592		-37.53382	
43.79216	2438.667		-37.52015	
43.84611	2436.74		-37.50805	
43.90005	2434.816		-37.4975	
43.954	2432.895		-37.4884	
44.00795	2430.975		-37.4806	
44.0619	2429.063		-37.47389	
44.11585	2427.155		-37.46803	
44.1698	2425.247		-37.46271	
44.22374	2423.33		-37.45767	
44.27769	2421.397		-37.45264	
44.33164	2419.44		-37.44738	
44.38559	2417.454		-37.44167	
44.43953	2415.434		-37.43535	
44.49348	2413.379		-37.42825	
44.54743	2411.301		-37.42022	
44.60138	2409.216		-37.41113	
44.65533	2407.14		-37.40084	
44.70927	2405.081		-37.38919	
44.76322	2403.038		-37.37599	
44.81717	2401.005		-37.36106	
44.87112	2398.974		-37.34424	
44.92506	2396.939		-37.32536	
44.97901	2394.9		-37.30428	
45.03296	2392.854		-37.28088	
45.08691	2390.797		-37.25509	
45.14086	2388.729		-37.22685	
45.19481	2386.658		-37.19615	
45.24875	2384.591		-37.163	
45.3027	2382.536		-37.12746	
45.35665	2380.489		-37.08964	
45.41059	2378.44		-37.04969	
45.46454	2376.386		-37.0078	
45.51849	2374.326		-36.96429	
45.57244	2372.258		-36.91951	
45.62638	2370.178		-36.87386	
45.68034	2368.082		-36.82776	
45.73428	2365.964		-36.78165	
45.78823	2363.822		-36.73594	
45.84218	2361.658		-36.69098	
45.89613	2359.477		-36.64708	
45.95007	2357.291		-36.6045	
46.00402	2355.114		-36.56341	
46.05797	2352.953		-36.52394	
46.11192	2350.812		-36.48613	
46.16586	2348.691		-36.44992	
46.21981	2346.589		-36.41522	
46.27376	2344.504		-36.38187	
46.32771	2342.432		-36.34972	
46.38166	2340.375		-36.31861	
46.4356	2338.341		-36.28838	
46.48955	2336.339		-36.25889	
46.5435	2334.38		-36.23	
46.59745	2332.475		-36.20161	
46.65139	2330.63		-36.17363	
46.70534	2328.849		-36.14598	
46.75929	2327.129		-36.11863	
46.81324	2325.466		-36.09151	
46.86719	2323.848		-36.06461	
46.92113	2322.259		-36.03795	
46.97508	2320.683		-36.01157	
47.02903	2319.103		-35.98553	
47.08298	2317.504		-35.95995	
47.13692	2315.877		-35.93489	
47.19087	2314.214		-35.91042	
47.24482	2312.516		-35.88655	
47.29877	2310.788		-35.86331	
47.35272	2309.031		-35.8407	
47.40667	2307.244		-35.81878	
47.46061	2305.425		-35.79762	
47.51456	2303.575		-35.77737	
47.56851	2301.7		-35.75818	
47.62246	2299.803		-35.74022	
47.6764	2297.882		-35.72366	
47.73035	2295.933		-35.70867	
47.7843	2293.953		-35.69543	
47.83825	2291.934		-35.68402	
47.8922	2289.876		-35.67448	
47.94614	2287.789		-35.6668	
48.00009	2285.683		-35.66093	
48.05404	2283.563		-35.65677	
48.10799	2281.435		-35.65416	
48.16193	2279.308		-35.65289	
48.21588	2277.193		-35.65268	
48.26983	2275.101		-35.65319	
48.32378	2273.037		-35.654	
48.37773	2271.005		-35.65468	
48.43167	2269.001		-35.65476	
48.48562	2267.018		-35.65378	
48.53957	2265.047		-35.65127	
48.59352	2263.077		-35.64675	
48.64746	2261.107		-35.63978	
48.70141	2259.141		-35.62992	
48.75536	2257.179		-35.61679	
48.80931	2255.227		-35.60006	
48.86325	2253.285		-35.57946	
48.91721	2251.352		-35.55483	
48.97115	2249.416		-35.5261	
49.0251	2247.466		-35.4933	
49.07905	2245.501		-35.45657	
49.133	2243.521		-35.41608	
49.18694	2241.522		-35.37205	
49.24089	2239.507		-35.32468	
49.29484	2237.482		-35.27422	
49.34879	2235.461		-35.22093	
49.40273	2233.453		-35.1651	
49.45668	2231.468		-35.10704	
49.51063	2229.507		-35.04709	
49.56458	2227.568		-34.98556	
49.61853	2225.643		-34.92282	
49.67247	2223.727		-34.85923	
49.72642	2221.823		-34.79521	
49.78037	2219.935		-34.73117	
49.83432	2218.058		-34.66754	
49.88826	2216.192		-34.60473	
49.94221	2214.342		-34.54313	
49.99616	2212.509		-34.48308	
50.05011	2210.691		-34.42494	
50.10406	2208.891		-34.36905	
50.158	2207.104		-34.31572	
50.21195	2205.331		-34.26522	
50.2659	2203.57		-34.21774	
50.31985	2201.821		-34.1734	
50.37379	2200.09		-34.13228	
50.42774	2198.384		-34.09439	
50.48169	2196.708		-34.0597	
50.53564	2195.054		-34.02808	
50.58959	2193.416		-33.9994	
50.64354	2191.78		-33.97349	
50.69748	2190.129		-33.95016	
50.75143	2188.447		-33.92925	
50.80538	2186.732		-33.91059	
50.85933	2184.994		-33.89404	
50.91327	2183.243		-33.87947	
50.96722	2181.485		-33.86681	
51.02117	2179.727		-33.856	
51.07512	2177.971		-33.84704	
51.12907	2176.217		-33.83995	
51.18301	2174.458		-33.83475	
51.23696	2172.688		-33.83145	
51.29091	2170.904		-33.83002	
51.34486	2169.107		-33.83042	
51.3988	2167.303		-33.83261	
51.45275	2165.49		-33.8365	
51.5067	2163.667		-33.842	
51.56065	2161.825		-33.84898	
51.61459	2159.958		-33.85731	
51.66854	2158.065		-33.86683	
51.72249	2156.157		-33.87737	
51.77644	2154.245		-33.88876	
51.83039	2152.341		-33.90086	
51.88433	2150.445		-33.91351	
51.93828	2148.555		-33.92655	
51.99223	2146.661		-33.93982	
52.04618	2144.765		-33.95316	
52.10012	2142.869		-33.9664	
52.15407	2140.977		-33.97944	
52.20802	2139.091		-33.99217	
52.26197	2137.204		-34.00446	
52.31592	2135.305		-34.01621	
52.36987	2133.386		-34.02729	
52.42381	2131.449		-34.03757	
52.47776	2129.497		-34.04692	
52.53171	2127.545		-34.05519	
52.58566	2125.606		-34.06227	
52.6396	2123.682		-34.06806	
52.69355	2121.771		-34.07248	
52.7475	2119.871		-34.0755	
52.80145	2117.987		-34.07706	
52.8554	2116.129		-34.07715	
52.90934	2114.295		-34.07576	
52.96329	2112.485		-34.07287	
53.01724	2110.693		-34.06843	
53.07119	2108.914		-34.0624	
53.12513	2107.135		-34.0547	
53.17908	2105.34		-34.04529	
53.23303	2103.515		-34.03409	
53.28698	2101.655		-34.02103	
53.34093	2099.765		-34.00608	
53.39487	2097.861		-33.98923	
53.44882	2095.961		-33.97049	
53.50277	2094.077		-33.94989	
53.55672	2092.22		-33.92748	
53.61066	2090.39		-33.90331	
53.66461	2088.587		-33.87747	
53.71856	2086.81		-33.85004	
53.77251	2085.065		-33.82112	
53.82646	2083.359		-33.7908	
53.88041	2081.687		-33.75921	
53.93435	2080.032		-33.72645	
53.9883	2078.377		-33.6926	
54.04225	2076.701		-33.65773	
54.0962	2074.989		-33.62191	
54.15014	2073.237		-33.58521	
54.20409	2071.443		-33.54771	
54.25804	2069.617		-33.50951	
54.31199	2067.769		-33.47071	
54.36594	2065.91		-33.43141	
54.41988	2064.052		-33.39172	
54.47383	2062.208		-33.35173	
54.52778	2060.391		-33.31152	
54.58173	2058.607		-33.27122	
54.63567	2056.847		-33.23095	
54.68962	2055.095		-33.1908	
54.74357	2053.335		-33.15086	
54.79752	2051.557		-33.11118	
54.85146	2049.753		-33.07177	
54.90541	2047.914		-33.03266	
54.95936	2046.033		-32.99388	
55.01331	2044.12		-32.95542	
55.06726	2042.185		-32.91727	
55.1212	2040.241		-32.87936	
55.17515	2038.299		-32.84164	
55.2291	2036.369		-32.80405	
55.28305	2034.457		-32.76652	
55.33699	2032.572		-32.72906	
55.39094	2030.719		-32.69165	
55.44489	2028.905		-32.65433	
55.49884	2027.133		-32.61709	
55.55279	2025.403		-32.57996	
55.60674	2023.714		-32.54294	
55.66068	2022.051		-32.50603	
55.71463	2020.399		-32.46921	
55.76858	2018.742		-32.43242	
55.82253	2017.072		-32.39566	
55.87647	2015.387		-32.35892	
55.93042	2013.686		-32.32225	
55.98437	2011.971		-32.28569	
56.03832	2010.243		-32.24928	
56.09227	2008.508		-32.21309	
56.14621	2006.77		-32.17719	
56.20016	2005.032		-32.14167	
56.25411	2003.295		-32.10661	
56.30806	2001.567		-32.07212	
56.362	1999.851		-32.03832	
56.41595	1998.146		-32.00528	
56.4699	1996.453		-31.97305	
56.52385	1994.772		-31.94164	
56.5778	1993.099		-31.91107	
56.63174	1991.426		-31.88132	
56.68569	1989.745		-31.85236	
56.73964	1988.052		-31.82414	
56.79359	1986.35		-31.7966	
56.84753	1984.641		-31.76969	
56.90148	1982.931		-31.74335	
56.95543	1981.219		-31.71757	
57.00938	1979.512		-31.69233	
57.06332	1977.813		-31.66763	
57.11728	1976.127		-31.64348	
57.17122	1974.457		-31.61986	
57.22517	1972.807		-31.59679	
57.27912	1971.18		-31.57428	
57.33307	1969.578		-31.55237	
57.38701	1967.995		-31.5311	
57.44096	1966.419		-31.5105	
57.49491	1964.835		-31.49055	
57.54885	1963.23		-31.47125	
57.6028	1961.598		-31.45256	
57.65675	1959.94		-31.43441	
57.7107	1958.255		-31.41669	
57.76465	1956.544		-31.39932	
57.8186	1954.807		-31.3822	
57.87254	1953.049		-31.36528	
57.92649	1951.276		-31.34853	
57.98044	1949.494		-31.33195	
58.03439	1947.708		-31.31555	
58.08833	1945.922		-31.29936	
58.14228	1944.138		-31.28341	
58.19623	1942.359		-31.26774	
58.25018	1940.585		-31.25235	
58.30413	1938.821		-31.23726	
58.35807	1937.065		-31.22247	
58.41202	1935.313		-31.20794	
58.46597	1933.559		-31.19362	
58.51992	1931.807		-31.17939	
58.57386	1930.06		-31.16511	
58.62781	1928.32		-31.1506	
58.68176	1926.588		-31.1357	
58.73571	1924.863		-31.12021	
58.78966	1923.149		-31.10399	
58.84361	1921.452		-31.08689	
58.89755	1919.772		-31.06878	
58.9515	1918.111		-31.04955	
59.00545	1916.47		-31.02907	
59.05939	1914.849		-31.00722	
59.11334	1913.244		-30.98387	
59.16729	1911.647		-30.95886	
59.22124	1910.054		-30.93202	
59.27519	1908.459		-30.90319	
59.32914	1906.859		-30.87224	
59.38308	1905.25		-30.83904	
59.43703	1903.631		-30.80343	
59.49098	1902		-30.7653	
59.54493	1900.36		-30.72454	
59.59887	1898.708		-30.68108	
59.65282	1897.048		-30.63488	
59.70677	1895.386		-30.58593	
59.76072	1893.727		-30.53428	
59.81467	1892.073		-30.48001	
59.86861	1890.428		-30.42323	
59.92256	1888.791		-30.36406	
59.97651	1887.161		-30.30262	
60.03046	1885.539		-30.23905	
60.0844	1883.918		-30.17348	
60.13835	1882.292		-30.10605	
60.1923	1880.652		-30.03692	
60.24625	1879.001		-29.96622	
60.30019	1877.343		-29.89408	
60.35414	1875.68		-29.82062	
60.40809	1874.011		-29.74597	
60.46204	1872.338		-29.67023	
60.51599	1870.664		-29.59348	
60.56993	1868.995		-29.51578	
60.62388	1867.336		-29.43718	
60.67783	1865.688		-29.35772	
60.73178	1864.057		-29.27746	
60.78572	1862.445		-29.19646	
60.83967	1860.852		-29.11478	
60.89362	1859.271		-29.03249	
60.94757	1857.699		-28.94963	
61.00152	1856.129		-28.86623	
61.05547	1854.557		-28.7823	
61.10941	1852.976		-28.69779	
61.16336	1851.385		-28.61266	
61.21731	1849.783		-28.52683	
61.27126	1848.172		-28.44022	
61.3252	1846.554		-28.35276	
61.37915	1844.934		-28.26437	
61.4331	1843.317		-28.175	
61.48705	1841.712		-28.08457	
61.541	1840.125		-27.99303	
61.59494	1838.564		-27.90031	
61.64889	1837.035		-27.80634	
61.70284	1835.542		-27.71107	
61.75679	1834.085		-27.61444	
61.81073	1832.659		-27.51641	
61.86468	1831.254		-27.4169	
61.91863	1829.863		-27.31583	
61.97258	1828.478		-27.21308	
62.02653	1827.096		-27.10849	
62.08047	1825.71		-27.00191	
62.13442	1824.313		-26.89316	
62.18837	1822.906		-26.78202	
62.24232	1821.49		-26.66831	
62.29626	1820.073		-26.55185	
62.35021	1818.659		-26.43246	
62.40416	1817.253		-26.30997	
62.45811	1815.863		-26.18422	
62.51205	1814.494		-26.05501	
62.56601	1813.148		-25.92216	
62.61995	1811.825		-25.78549	
62.6739	1810.515		-25.64477	
62.72785	1809.21		-25.49977	
62.7818	1807.898		-25.35023	
62.83574	1806.569		-25.19589	
62.88969	1805.212		-25.03642	
62.94364	1803.82		-24.87147	
62.99759	1802.395		-24.70066	
63.05153	1800.946		-24.52362	
63.10548	1799.486		-24.3399	
63.15943	1798.029		-24.1491	
63.21338	1796.589		-23.95075	
63.26733	1795.177		-23.74441	
63.32127	1793.797		-23.52964	
63.37522	1792.45		-23.30599	
63.42917	1791.131		-23.07299	
63.48312	1789.832		-22.83018	
63.53706	1788.543		-22.57703	
63.59101	1787.258		-22.31306	
63.64496	1785.976		-22.03768	
63.69891	1784.698		-21.75034	
63.75286	1783.422		-21.45041	
63.8068	1782.14		-21.13724	
63.86075	1780.849		-20.81018	
63.9147	1779.549		-20.46855	
63.96865	1778.239		-20.11165	
64.0226	1776.923		-19.73874	
64.07655	1775.617		-19.34918	
64.13049	1774.335		-18.94222	
64.18444	1773.088		-18.51715	
64.23839	1771.885		-18.07326	
64.29234	1770.722		-17.60984	
64.34628	1769.596		-17.12617	
64.40023	1768.499		-16.62156	
64.45418	1767.425		-16.0953	
64.50813	1766.371		-15.54668	
64.56207	1765.339		-14.97499	
64.61602	1764.33		-14.37948	
64.66997	1763.349		-13.75945	
64.72392	1762.401		-13.11415	
64.77786	1761.493		-12.44283	
64.83181	1760.623		-11.74476	
64.88576	1759.785		-11.01919	
64.9397	1758.977		-10.26538	
64.99365	1758.199		-9.482598	
65.04761	1757.453		-8.669979	
65.10155	1756.739		-7.826996	
65.1555	1756.058		-6.952782	
65.20945	1755.411		-6.046527	
65.2634	1754.806		-5.107463	
65.31734	1754.25		-4.134796	
65.37129	1753.75		-3.127716	
65.42524	1753.309		-2.085372	
65.47919	1752.926		-1.006886	
65.53313	1752.596		0.1086352	
65.58708	1752.313		1.262097	
65.64103	1752.079		2.454419	
65.69498	1751.897		3.686548	
65.74892	1751.769		4.959398	
65.80287	1751.699		6.273962	
65.85682	1751.691		7.631246	
65.91077	1751.75		9.032293	
65.96471	1751.874		10.47818	
66.01866	1752.066		11.97001	
66.07261	1752.324		13.50888	
66.12656	1752.65		15.09611	
66.18051	1753.049		16.73231	
66.23446	1753.528		18.41874	
66.28841	1754.095		20.1565	
66.34235	1754.755		21.94661	
66.3963	1755.507		23.79011	
66.45025	1756.348		25.68801	
66.5042	1757.28		27.64132	
66.55814	1758.3		29.65102	
66.61209	1759.407		31.718	
66.66604	1760.601		33.84322	
66.71999	1761.889		36.02751	
66.77393	1763.275		38.27175	
66.82788	1764.766		40.57659	
66.88183	1766.366		42.94281	
66.93578	1768.08		45.37104	
66.98972	1769.912		47.86189	
67.04367	1771.872		50.41586	
67.09762	1773.971		53.03347	
67.15157	1776.218		55.71515	
67.20552	1778.619		58.46176	
67.25947	1781.176		61.27295	
67.31342	1783.889		64.14956	
67.36736	1786.754		67.09203	
67.42131	1789.77		70.10081	
67.47526	1792.934		73.17633	
67.52921	1796.245		76.31896	
67.58315	1799.706		79.52909	
67.6371	1803.329		82.80698	
67.69105	1807.123		86.15308	
67.745	1811.093		89.56757	
67.79894	1815.24		93.05068	
67.85289	1819.565		96.60258	
67.90684	1824.069		100.2235	
67.96078	1828.765		103.9134	
68.01473	1833.67		107.6725	
68.06868	1838.8		111.5007	
68.12263	1844.161		115.3982	
68.17657	1849.754		119.3647	
68.23052	1855.578		123.4002	
68.28448	1861.633		127.505	
68.33842	1867.92		131.6777	
68.39237	1874.443		135.9186	
68.44632	1881.212		140.2273	
68.50027	1888.242		144.6034	
68.55421	1895.541		149.0464	
68.60816	1903.115		153.5559	
68.66211	1910.964		158.1311	
68.71606	1919.083		162.7713	
68.77	1927.471		167.4756	
68.82395	1936.124		172.2432	
68.8779	1945.041		177.0727	
68.93185	1954.22		181.963	
68.98579	1963.663		186.9126	
69.03974	1973.366		191.9197	
69.09369	1983.329		196.9825	
69.14764	1993.551		202.099	
69.20158	2004.035		207.2671	
69.25553	2014.792		212.4841	
69.30948	2025.832		217.7476	
69.36343	2037.166		223.0553	
69.41738	2048.794		228.4024	
69.47133	2060.714		233.7861	
69.52528	2072.925		239.2027	
69.57922	2085.425		244.6478	
69.63317	2098.219		250.117	
69.68712	2111.316		255.6052	
69.74107	2124.726		261.1072	
69.79501	2138.465		266.6171	
69.84896	2152.545		272.1288	
69.90291	2166.967		277.6355	
69.95686	2181.732		283.1302	
70.0108	2196.84		288.6053	
70.06475	2212.296		294.0528	
70.1187	2228.107		299.4639	
70.17265	2244.285		304.8298	
70.22659	2260.84		310.1409	
70.28054	2277.773		315.3874	
70.33449	2295.072		320.5588	
70.38844	2312.725		325.6447	
70.44238	2330.722		330.6342	
70.49634	2349.063		335.5166	
70.55029	2367.742		340.2794	
70.60423	2386.761		344.9117	
70.65818	2406.125		349.402	
70.71213	2425.832		353.739	
70.76608	2445.876		357.9112	
70.82002	2466.244		361.9075	
70.87397	2486.933		365.7169	
70.92792	2507.948		369.3284	
70.98186	2529.3		372.7316	
71.03581	2550.999		375.9163	
71.08976	2573.052		378.873	
71.14371	2595.46		381.592	
71.19765	2618.219		384.0653	
71.2516	2641.317		386.2846	
71.30555	2664.744		388.2425	
71.3595	2688.489		389.9322	
71.41344	2712.538		391.3478	
71.46739	2736.874		392.4841	
71.52134	2761.478		393.3367	
71.57529	2786.335		393.9021	
71.62924	2811.421		394.1774	
71.68319	2836.718		394.1608	
71.73714	2862.21		393.8513	
71.79108	2887.878		393.2487	
71.84503	2913.694		392.3535	
71.89898	2939.62		391.167	
71.95293	2965.616		389.6917	
72.00687	2991.643		387.9298	
72.06082	3017.656		385.8852	
72.11477	3043.606		383.5618	
72.16872	3069.44		380.9643	
72.22266	3095.112		378.0976	
72.27661	3120.568		374.9681	
72.33056	3145.751		371.5815	
72.38451	3170.61		367.9446	
72.43845	3195.103		364.0644	
72.4924	3219.196		359.9483	
72.54635	3242.849		355.6042	
72.6003	3266.025		351.0405	
72.65425	3288.692		346.265	
72.7082	3310.809		341.2882	
72.76215	3332.338		336.1187	
72.81609	3353.251		330.7662	
72.87004	3373.523		325.241	
72.92399	3393.136		319.5534	
72.97794	3412.068		313.7143	
73.03188	3430.298		307.7347	
73.08583	3447.814		301.626	
73.13978	3464.62		295.3995	
73.19373	3480.729		289.0672	
73.24767	3496.163		282.6408	
73.30162	3510.942		276.1328	
73.35557	3525.088		269.5551	
73.40952	3538.62		262.9204	
73.46346	3551.544		256.2412	
73.51741	3563.861		249.53	
73.57136	3575.575		242.7993	
73.62531	3586.684		236.0619	
73.67925	3597.201		229.3304	
73.73321	3607.156		222.6163	
73.78716	3616.583		215.9341	
73.8411	3625.518		209.295	
73.89505	3633.994		202.7111	
73.949	3642.042		196.1943	
74.00294	3649.702		189.756	
74.05689	3657.016		183.4071	
74.11084	3664.025		177.158	
74.16479	3670.763		171.0185	
74.21873	3677.253		164.998	
74.27268	3683.503		159.1048	
74.32663	3689.511		153.3466	
74.38058	3695.274		147.7304	
74.43452	3700.799		142.2626	
74.48847	3706.095		136.9483	
74.54242	3711.168		131.7921	
74.59637	3716.017		126.7978	
74.65031	3720.648		121.9683	
74.70426	3725.068		117.3054	
74.75821	3729.293		112.8105	
74.81216	3733.343		108.4832	
74.86611	3737.241		104.3246	
74.92006	3741.017		100.333	
74.97401	3744.699		96.50697	
75.02795	3748.306		92.84418	
75.0819	3751.84		89.34195	
75.13585	3755.299		85.99702	
75.1898	3758.667		82.8057	
75.24374	3761.932		79.76373	
75.29769	3765.084		76.86691	
75.35164	3768.124		74.11024	
75.40559	3771.052		71.48863	
75.45953	3773.875		68.9967	
75.51348	3776.611		66.62903	
75.56743	3779.28		64.37968	
75.62138	3781.887		62.243	
75.67532	3784.432		60.21313	
75.72927	3786.921		58.28429	
75.78322	3789.36		56.45071	
75.83717	3791.76		54.70677	
75.89111	3794.126		53.04699	
75.94507	3796.463		51.46584	
75.99902	3798.769		49.95866	
76.05296	3801.041		48.52033	
76.10691	3803.275		47.1462	
76.16086	3805.474		45.83188	
76.21481	3807.636		44.57319	
76.26875	3809.759		43.36616	
76.3227	3811.84		42.20702	
76.37665	3813.876		41.09232	
76.4306	3815.875		40.01869	
76.48454	3817.836		38.98299	
76.53849	3819.759		37.98224	
76.59244	3821.644		37.01362	
76.64639	3823.492		36.07439	
76.70033	3825.304		35.16203	
76.75428	3827.079		34.27417	
76.80823	3828.814		33.40863	
76.86217	3830.503		32.56343	
76.91612	3832.148		31.73681	
76.97007	3833.756		30.92725	
77.02402	3835.338		30.13337	
77.07797	3836.909		29.35438	
77.13192	3838.471		28.58939	
77.18587	3840.015		27.83783	
77.23981	3841.524		27.09932	
77.29376	3842.992		26.37362	
77.34771	3844.41		25.6606	
77.40166	3845.779		24.96024	
77.4556	3847.101		24.27259	
77.50955	3848.393		23.59775	
77.5635	3849.658		22.9358	
77.61745	3850.898		22.28689	
77.67139	3852.107		21.65111	
77.72534	3853.281		21.02858	
77.77929	3854.411		20.41936	
77.83324	3855.493		19.82347	
77.88718	3856.526		19.24092	
77.94113	3857.515		18.67165	
77.99508	3858.468		18.1156	
78.04903	3859.394		17.5727	
78.10298	3860.294		17.04287	
78.15693	3861.165		16.52627	
78.21088	3862.01		16.02291	
78.26482	3862.825		15.53278	
78.31877	3863.61		15.05585	
78.37272	3864.361		14.59198	
78.42667	3865.071		14.14099	
78.48061	3865.729		13.70261	
78.53456	3866.326		13.27651	
78.58851	3866.858		12.86232	
78.64246	3867.328		12.45955	
78.6964	3867.745		12.06768	
78.75035	3868.112		11.6862	
78.8043	3868.427		11.31459	
78.85825	3868.688		10.95234	
78.91219	3868.897		10.59906	
78.96614	3869.057		10.25447	
79.02009	3869.175		9.918424	
79.07404	3869.27		9.590946	
79.12798	3869.355		9.272252	
79.18194	3869.439		8.962699	
79.23589	3869.522		8.662941	
79.28983	3869.596		8.373659	
79.34378	3869.659		8.095718	
79.39773	3869.709		7.830084	
79.45168	3869.756		7.577788	
79.50562	3869.82		7.33988	
79.55957	3869.927		7.117405	
79.61352	3870.097		6.911372	
79.66747	3870.341		6.722799	
79.72141	3870.665		6.552605	
79.77536	3871.066		6.401625	
79.82931	3871.53		6.270566	
79.88326	3872.04		6.160012	
79.9372	3872.583		6.070342	
79.99115	3873.144		6.001827	
80.0451	3873.708		5.954566	
80.09904	3874.255		5.928533	
80.15299	3874.773		5.923589	
80.20694	3875.257		5.939493	
80.26089	3875.713		5.97585	
80.31484	3876.148		6.032117	
80.36879	3876.573		6.107553	
80.42274	3876.994		6.201282	
80.47668	3877.412		6.312225	
80.53063	3877.812		6.439121	
80.58458	3878.184		6.580526	
80.63853	3878.526		6.734848	
80.69247	3878.835		6.900335	
80.74642	3879.111		7.07515	
80.80037	3879.348		7.257298	
80.85432	3879.528		7.444722	
80.90826	3879.632		7.635322	
80.96221	3879.651		7.827011	
81.01616	3879.598		8.017689	
81.07011	3879.492		8.205342	
81.12405	3879.355		8.388019	
81.178	3879.208		8.563875	
81.23195	3879.076		8.731201	
81.2859	3878.987		8.888436	
81.33984	3878.964		9.034187	
81.3938	3879.016		9.167253	
81.44775	3879.148		9.286547	
81.50169	3879.362		9.391213	
81.55564	3879.659		9.480574	
81.60959	3880.031		9.554132	
81.66354	3880.477		9.611593	
81.71748	3880.996		9.65283	
81.77143	3881.582		9.677865	
81.82538	3882.229		9.686785	
81.87933	3882.942		9.679786	
81.93327	3883.722		9.657089	
81.98722	3884.569		9.618935	
82.04117	3885.482		9.565532	
82.09512	3886.455		9.497162	
82.14906	3887.481		9.414039	
82.20301	3888.556		9.316395	
82.25696	3889.671		9.204431	
82.31091	3890.821		9.078329	
82.36485	3891.998		8.938226	
82.4188	3893.198		8.784218	
82.47276	3894.409		8.616284	
82.5267	3895.61		8.434394	
82.58065	3896.78		8.238338	
82.6346	3897.899		8.02785	
82.68855	3898.959		7.802561	
82.74249	3899.965		7.561987	
82.79644	3900.924		7.305511	
82.85039	3901.837		7.032398	
82.90434	3902.698		6.74182	
82.95828	3903.516		6.432765	
83.01223	3904.294		6.104194	
83.06618	3905.025		5.754964	
83.12012	3905.696		5.383851	
83.17407	3906.301		4.989565	
83.22802	3906.839		4.570892	
83.28197	3907.311		4.126584	
83.33591	3907.718		3.6555	
83.38986	3908.052		3.156621	
83.44381	3908.312		2.629042	
83.49776	3908.504		2.071986	
83.55171	3908.629		1.484759	
83.60566	3908.684		0.8671441	
83.65961	3908.674		0.2189063	
83.71355	3908.6		-0.4598946	
83.7675	3908.462		-1.169011	
83.82145	3908.253		-1.908007	
83.8754	3907.966		-2.676254	
83.92934	3907.594		-3.472907	
83.98329	3907.138		-4.296909	
84.03724	3906.6		-5.14706	
84.09119	3905.993		-6.02193	
84.14513	3905.335		-6.919959	
84.19908	3904.65		-7.839476	
84.25303	3903.954		-8.77875	
84.30698	3903.254		-9.735929	
84.36092	3902.557		-10.70915	
84.41487	3901.873		-11.69649	
84.46882	3901.213		-12.69597	
84.52277	3900.587		-13.70557	
84.57671	3900.002		-14.72325	
84.63067	3899.454		-15.74707	
84.68462	3898.938		-16.77467	
84.73856	3898.435		-17.80414	
84.79251	3897.922		-18.83348	
84.84646	3897.377		-19.8607	
84.90041	3896.789		-20.88394	
84.95435	3896.155		-21.90144	
85.0083	3895.476		-22.91163	
85.06225	3894.746		-23.91315	
85.1162	3893.954		-24.90484	
85.17014	3893.093		-25.8858	
85.22409	3892.16		-26.85535	
85.27804	3891.157		-27.81304	
85.33199	3890.077		-28.7586	
85.38593	3888.907		-29.69189	
85.43988	3887.632		-30.61291	
85.49383	3886.232		-31.52176	
85.54778	3884.684		-32.41864	
85.60172	3882.969		-33.30377	
85.65567	3881.078		-34.17743	
85.70962	3879.01		-35.03996	
85.76357	3876.78		-35.8919	
85.81752	3874.41		-36.73349	
85.87147	3871.926		-37.5653	
85.92542	3869.351		-38.38779	
85.97936	3866.697		-39.20138	
86.03331	3863.964		-40.00646	
86.08726	3861.156		-40.80338	
86.1412	3858.288		-41.59243	
86.19515	3855.38		-42.37383	
86.2491	3852.439		-43.14778	
86.30305	3849.466		-43.91436	
86.35699	3846.449		-44.67358	
86.41094	3843.388		-45.42533	
86.46489	3840.284		-46.16948	
86.51884	3837.149		-46.90574	
86.57278	3833.996		-47.63373	
86.62673	3830.847		-48.35303	
86.68068	3827.718		-49.0632	
86.73463	3824.617		-49.76372	
86.78857	3821.542		-50.45409	
86.84253	3818.489		-51.1338	
86.89648	3815.447		-51.80202	
86.95042	3812.409		-52.45821	
87.00437	3809.372		-53.10171	
87.05832	3806.338		-53.73191	
87.11227	3803.311		-54.34827	
87.16621	3800.288		-54.95029	
87.22016	3797.268		-55.53762	
87.27411	3794.25		-56.10994	
87.32806	3791.244		-56.66709	
87.382	3788.265		-57.20903	
87.43595	3785.333		-57.73589	
87.4899	3782.449		-58.24787	
87.54385	3779.609		-58.74531	
87.59779	3776.791		-59.22861	
87.65174	3773.962		-59.69826	
87.70569	3771.097		-60.15481	
87.75964	3768.173		-60.59892	
87.81358	3765.179		-61.03127	
87.86753	3762.111		-61.45259	
87.92149	3758.979		-61.86363	
87.97543	3755.802		-62.26503	
88.02938	3752.593		-62.65757	
88.08333	3749.367		-63.04205	
88.13728	3746.146		-63.4192	
88.19122	3742.944		-63.78981	
88.24517	3739.765		-64.15459	
88.29912	3736.593		-64.5142	
88.35307	3733.401		-64.86922	
88.40701	3730.16		-65.22015	
88.46096	3726.84		-65.56738	
88.51491	3723.414		-65.91119	
88.56886	3719.865		-66.25182	
88.6228	3716.187		-66.58943	
88.67675	3712.38		-66.92416	
88.7307	3708.459		-67.25609	
88.78465	3704.451		-67.58525	
88.83859	3700.393		-67.91165	
88.89254	3696.314		-68.23522	
88.94649	3692.23		-68.55589	
89.00044	3688.155		-68.87363	
89.05439	3684.104		-69.18824	
89.10834	3680.085		-69.49958	
89.16228	3676.095		-69.80743	
89.21623	3672.114		-70.11145	
89.27018	3668.118		-70.41121	
89.32413	3664.071		-70.70617	
89.37807	3659.956		-70.99573	
89.43202	3655.768		-71.2793	
89.48597	3651.525		-71.55619	
89.53992	3647.247		-71.82581	
89.59386	3642.958		-72.08752	
89.64781	3638.686		-72.34079	
89.70176	3634.456		-72.58506	
89.75571	3630.281		-72.81989	
89.80965	3626.169		-73.04485	
89.8636	3622.116		-73.25963	
89.91755	3618.112		-73.46393	
89.9715	3614.131		-73.65754	
90.02544	3610.156		-73.84027	
90.07939	3606.175		-74.01199	
90.13335	3602.183		-74.17262	
90.18729	3598.18		-74.32203	
90.24124	3594.161		-74.46029	
90.29519	3590.122		-74.58749	
90.34914	3586.068		-74.70382	
90.40308	3582.01		-74.80957	
90.45703	3577.964		-74.90515	
90.51098	3573.945		-74.99112	
90.56493	3569.964		-75.06815	
90.61887	3566.021		-75.13699	
90.67282	3562.107		-75.19852	
90.72677	3558.212		-75.25362	
90.78072	3554.327		-75.30318	
90.83466	3550.447		-75.34808	
90.88861	3546.559		-75.38926	
90.94256	3542.657		-75.42763	
90.99651	3538.734		-75.46415	
91.05045	3534.786		-75.49979	
91.1044	3530.807		-75.53547	
91.15835	3526.797		-75.57207	
91.2123	3522.767		-75.61043	
91.26625	3518.722		-75.65129	
91.3202	3514.661		-75.69531	
91.37415	3510.582		-75.74305	
91.42809	3506.483		-75.79489	
91.48204	3502.356		-75.85113	
91.53599	3498.199		-75.91195	
91.58994	3494.007		-75.97746	
91.64388	3489.781		-76.04773	
91.69783	3485.523		-76.12268	
91.75178	3481.245		-76.2022	
91.80573	3476.963		-76.28609	
91.85967	3472.696		-76.37412	
91.91362	3468.45		-76.466	
91.96757	3464.227		-76.56142	
92.02151	3460.029		-76.66003	
92.07546	3455.862		-76.76142	
92.12941	3451.732		-76.86513	
92.18336	3447.635		-76.97065	
92.2373	3443.563		-77.07747	
92.29126	3439.51		-77.18507	
92.34521	3435.474		-77.29288	
92.39915	3431.444		-77.40044	
92.4531	3427.418		-77.5047	
92.50705	3423.389		-77.6049	
92.561	3419.354		-77.7017	
92.61494	3415.308		-77.79588	
92.66889	3411.252		-77.88812	
92.72284	3407.179		-77.97895	
92.77679	3403.088		-78.06877	
92.83073	3398.974		-78.15787	
92.88468	3394.843		-78.24648	
92.93863	3390.694		-78.33475	
92.99258	3386.524		-78.42282	
93.04652	3382.321		-78.5108	
93.10047	3378.076		-78.59875	
93.15442	3373.779		-78.68674	
93.20837	3369.428		-78.77483	
93.26231	3365.026		-78.86304	
93.31626	3360.591		-78.9514	
93.37022	3356.14		-79.03994	
93.42416	3351.689		-79.12865	
93.47811	3347.245		-79.21756	
93.53206	3342.81		-79.30666	
93.58601	3338.385		-79.39596	
93.63995	3333.968		-79.48543	
93.6939	3329.563		-79.57507	
93.74785	3325.175		-79.66485	
93.8018	3320.799		-79.75475	
93.85574	3316.434		-79.84475	
93.90969	3312.083		-79.93481	
93.96364	3307.758		-80.02491	
94.01759	3303.46		-80.11501	
94.07153	3299.208		-80.2051	
94.12548	3294.924		-80.29514	
94.17943	3290.611		-80.3851	
94.23338	3286.281		-80.47497	
94.28732	3281.941		-80.5647	
94.34127	3277.595		-80.6543	
94.39522	3273.244		-80.74371	
94.44917	3268.889		-80.83295	
94.50312	3264.532		-80.92196	
94.55707	3260.174		-81.01073	
94.61102	3255.815		-81.09926	
94.66496	3251.456		-81.18752	
94.71891	3247.096		-81.27551	
94.77286	3242.737		-81.36321	
94.82681	3238.379		-81.45061	
94.88075	3234.021		-81.53771	
94.9347	3229.66		-81.62451	
94.98865	3225.297		-81.711	
