T[Â°C]	330nm [counts / mm]	S.D.	First derivative	S.D. of first derivative
20.0008	3344.531		-46.66826	
20.05476	3342.169		-46.66644	
20.10871	3339.811		-46.6637	
20.16266	3337.459		-46.66	
20.21661	3335.113		-46.65533	
20.27056	3332.771		-46.64965	
20.32452	3330.435		-46.64293	
20.37847	3328.103		-46.63517	
20.43242	3325.775		-46.62635	
20.48637	3323.451		-46.61643	
20.54032	3321.131		-46.60542	
20.59427	3318.815		-46.59331	
20.64823	3316.501		-46.58007	
20.70218	3314.19		-46.56572	
20.75613	3311.881		-46.55025	
20.81008	3309.573		-46.53366	
20.86403	3307.269		-46.51596	
20.91799	3304.974		-46.49715	
20.97194	3302.705		-46.47725	
21.02589	3300.426		-46.45628	
21.07984	3298.092		-46.43427	
21.13379	3295.695		-46.41122	
21.18774	3293.238		-46.38719	
21.2417	3290.724		-46.3622	
21.29565	3288.163		-46.33628	
21.3496	3285.567		-46.30949	
21.40355	3282.956		-46.28187	
21.4575	3280.341		-46.25348	
21.51146	3277.727		-46.22437	
21.56541	3275.114		-46.1946	
21.61936	3272.506		-46.16425	
21.67331	3269.905		-46.1334	
21.72726	3267.304		-46.10213	
21.78122	3264.688		-46.07054	
21.83517	3262.043		-46.03873	
21.88912	3259.363		-46.00682	
21.94307	3256.652		-45.97493	
21.99702	3253.925		-45.94318	
22.05097	3251.194		-45.91172	
22.10493	3248.469		-45.88066	
22.15888	3245.754		-45.85016	
22.21283	3243.062		-45.8203	
22.26678	3240.406		-45.79111	
22.32073	3237.798		-45.76252	
22.37469	3235.242		-45.73428	
22.42864	3232.733		-45.70581	
22.48259	3230.256		-45.67614	
22.53654	3227.794		-45.64383	
22.59049	3225.321		-45.60723	
22.64444	3222.82		-45.55239	
22.6984	3220.285		-45.49852	
22.75235	3217.718		-45.44567	
22.8063	3215.132		-45.39387	
22.86025	3212.551		-45.34314	
22.9142	3209.994		-45.2935	
22.96815	3207.471		-45.24501	
23.02211	3204.985		-45.19775	
23.07606	3202.536		-45.1518	
23.13001	3200.128		-45.10728	
23.18396	3197.761		-45.06432	
23.23792	3195.434		-45.02304	
23.29187	3193.145		-44.98362	
23.34582	3190.895		-44.94622	
23.39977	3188.676		-44.91107	
23.45372	3186.48		-44.87838	
23.50767	3184.297		-44.8484	
23.56162	3182.119		-44.8213	
23.61558	3179.945		-44.79728	
23.66953	3177.781		-44.77647	
23.72348	3175.634		-44.759	
23.77743	3173.502		-44.74496	
23.83138	3171.373		-44.73441	
23.88534	3169.233		-44.72741	
23.93929	3167.07		-44.72397	
23.99324	3164.876		-44.7241	
24.04719	3162.651		-44.72777	
24.10114	3160.402		-44.73493	
24.1551	3158.13		-44.74548	
24.20905	3155.834		-44.75928	
24.263	3153.507		-44.77613	
24.31695	3151.137		-44.79576	
24.3709	3148.723		-44.81783	
24.42485	3146.273		-44.84198	
24.47881	3143.797		-44.8678	
24.53276	3141.301		-44.89482	
24.58671	3138.785		-44.92249	
24.64066	3136.247		-44.95017	
24.69461	3133.694		-44.97721	
24.74857	3131.135		-45.00289	
24.80252	3128.584		-45.02653	
24.85647	3126.051		-45.04743	
24.91042	3123.536		-45.06494	
24.96437	3121.038		-45.07846	
25.01832	3118.553		-45.08746	
25.07228	3116.079		-45.09148	
25.12623	3113.614		-45.09016	
25.18018	3111.153		-45.08329	
25.23413	3108.688		-45.07071	
25.28808	3106.212		-45.05241	
25.34204	3103.718		-45.02847	
25.39599	3101.208		-44.99902	
25.44994	3098.681		-44.96434	
25.50389	3096.136		-44.92468	
25.55784	3093.569		-44.88041	
25.6118	3090.975		-44.83191	
25.66575	3088.36		-44.77958	
25.7197	3085.732		-44.72387	
25.77365	3083.099		-44.66516	
25.8276	3080.468		-44.60388	
25.88155	3077.843		-44.54042	
25.9355	3075.218		-44.47518	
25.98946	3072.586		-44.40852	
26.04341	3069.943		-44.34079	
26.09736	3067.289		-44.27229	
26.15131	3064.632		-44.20331	
26.20527	3061.982		-44.13416	
26.25922	3059.35		-44.06508	
26.31317	3056.752		-43.9963	
26.36712	3054.201		-43.92801	
26.42107	3051.708		-43.86039	
26.47502	3049.277		-43.79363	
26.52898	3046.909		-43.72794	
26.58293	3044.598		-43.66356	
26.63688	3042.34		-43.60069	
26.69083	3040.129		-43.53957	
26.74478	3037.96		-43.48041	
26.79873	3035.832		-43.4234	
26.85269	3033.739		-43.36866	
26.90664	3031.678		-43.31628	
26.96059	3029.645		-43.26628	
27.01454	3027.631		-43.21861	
27.06849	3025.63		-43.17315	
27.12245	3023.64		-43.12976	
27.1764	3021.662		-43.08831	
27.23035	3019.692		-43.04874	
27.2843	3017.724		-43.01102	
27.33825	3015.749		-42.97521	
27.3922	3013.76		-42.94138	
27.44616	3011.752		-42.90969	
27.50011	3009.718		-42.88033	
27.55406	3007.652		-42.85356	
27.60801	3005.548		-42.82971	
27.66196	3003.404		-42.80912	
27.71592	3001.22		-42.79212	
27.76987	2998.994		-42.77901	
27.82382	2996.731		-42.77	
27.87777	2994.438		-42.76525	
27.93172	2992.119		-42.76482	
27.98568	2989.773		-42.7687	
28.03963	2987.399		-42.77679	
28.09358	2984.993		-42.7889	
28.14753	2982.553		-42.80478	
28.20148	2980.083		-42.82409	
28.25543	2977.59		-42.84644	
28.30939	2975.087		-42.87136	
28.36334	2972.586		-42.8983	
28.41729	2970.095		-42.92669	
28.47124	2967.613		-42.95596	
28.52519	2965.132		-42.98554	
28.57915	2962.65		-43.01492	
28.6331	2960.176		-43.04366	
28.68705	2957.715		-43.07142	
28.741	2955.268		-43.09792	
28.79495	2952.835		-43.12292	
28.8489	2950.418		-43.14624	
28.90286	2948.02		-43.16766	
28.95681	2945.642		-43.18698	
29.01076	2943.273		-43.20396	
29.06471	2940.905		-43.21838	
29.11866	2938.531		-43.23001	
29.17262	2936.144		-43.23867	
29.22657	2933.737		-43.24419	
29.28052	2931.305		-43.24646	
29.33447	2928.852		-43.24538	
29.38842	2926.386		-43.24087	
29.44238	2923.918		-43.2329	
29.49633	2921.462		-43.22147	
29.55028	2919.032		-43.20665	
29.60423	2916.636		-43.18859	
29.65818	2914.27		-43.16753	
29.71213	2911.924		-43.14375	
29.76608	2909.585		-43.11754	
29.82004	2907.245		-43.08924	
29.87399	2904.9		-43.05917	
29.92794	2902.549		-43.0276	
29.98189	2900.195		-42.9948	
30.03584	2897.841		-42.96101	
30.0898	2895.486		-42.92639	
30.14375	2893.128		-42.89111	
30.1977	2890.771		-42.85524	
30.25165	2888.426		-42.81884	
30.3056	2886.111		-42.78191	
30.35956	2883.852		-42.74437	
30.41351	2881.669		-42.70615	
30.46746	2879.569		-42.6671	
30.52141	2877.543		-42.62708	
30.57536	2875.575		-42.58591	
30.62931	2873.641		-42.54348	
30.68327	2871.707		-42.49972	
30.73722	2869.74		-42.45462	
30.79117	2867.719		-42.40828	
30.84512	2865.635		-42.36084	
30.89907	2863.49		-42.31249	
30.95303	2861.285		-42.26349	
31.00698	2859.028		-42.21407	
31.06093	2856.732		-42.16444	
31.11488	2854.418		-42.11486	
31.16883	2852.103		-42.06558	
31.22278	2849.796		-42.01685	
31.27674	2847.493		-41.9689	
31.33069	2845.186		-41.92194	
31.38464	2842.866		-41.87614	
31.43859	2840.527		-41.83162	
31.49254	2838.166		-41.78843	
31.5465	2835.782		-41.74656	
31.60045	2833.376		-41.70595	
31.6544	2830.954		-41.66653	
31.70835	2828.517		-41.62819	
31.7623	2826.067		-41.59081	
31.81626	2823.606		-41.55427	
31.87021	2821.14		-41.51851	
31.92416	2818.683		-41.48347	
31.97811	2816.253		-41.44915	
32.03206	2813.868		-41.41552	
32.08601	2811.534		-41.38258	
32.13997	2809.249		-41.3503	
32.19392	2807.003		-41.31859	
32.24787	2804.784		-41.28731	
32.30182	2802.583		-41.25628	
32.35577	2800.385		-41.22529	
32.40973	2798.18		-41.19408	
32.46368	2795.972		-41.16235	
32.51763	2793.767		-41.1298	
32.57158	2791.575		-41.09609	
32.62553	2789.399		-41.06092	
32.67949	2787.236		-41.024	
32.73344	2785.084		-40.98513	
32.78739	2782.937		-40.94421	
32.84134	2780.792		-40.90121	
32.89529	2778.646		-40.85623	
32.94924	2776.496		-40.80943	
33.0032	2774.343		-40.76102	
33.05715	2772.189		-40.71124	
33.1111	2770.041		-40.66039	
33.16505	2767.902		-40.60883	
33.219	2765.766		-40.55697	
33.27295	2763.622		-40.50533	
33.3269	2761.466		-40.45444	
33.38086	2759.298		-40.40491	
33.43481	2757.119		-40.35731	
33.48876	2754.935		-40.31214	
33.54271	2752.759		-40.26984	
33.59666	2750.611		-40.2308	
33.65062	2748.503		-40.19532	
33.70457	2746.439		-40.16364	
33.75852	2744.405		-40.13592	
33.81247	2742.385		-40.11225	
33.86642	2740.359		-40.09273	
33.92038	2738.312		-40.07742	
33.97433	2736.238		-40.06638	
34.02828	2734.138		-40.05969	
34.08223	2732.015		-40.05737	
34.13618	2729.87		-40.05943	
34.19014	2727.704		-40.06581	
34.24409	2725.527		-40.07643	
34.29804	2723.348		-40.09114	
34.35199	2721.169		-40.10974	
34.40594	2718.991		-40.13199	
34.4599	2716.813		-40.15759	
34.51385	2714.636		-40.18619	
34.5678	2712.458		-40.21738	
34.62175	2710.284		-40.25068	
34.6757	2708.114		-40.28556	
34.72965	2705.951		-40.32143	
34.7836	2703.796		-40.35769	
34.83756	2701.646		-40.3937	
34.89151	2699.497		-40.42883	
34.94546	2697.341		-40.4625	
34.99941	2695.172		-40.49414	
35.05336	2692.988		-40.52327	
35.10732	2690.793		-40.54946	
35.16127	2688.596		-40.57238	
35.21522	2686.407		-40.59181	
35.26917	2684.237		-40.60761	
35.32312	2682.09		-40.61979	
35.37708	2679.961		-40.62841	
35.43103	2677.84		-40.63363	
35.48498	2675.718		-40.63563	
35.53893	2673.587		-40.6346	
35.59288	2671.44		-40.63081	
35.64684	2669.279		-40.62451	
35.70079	2667.104		-40.61594	
35.75474	2664.908		-40.60531	
35.80869	2662.684		-40.59282	
35.86264	2660.421		-40.57867	
35.9166	2658.112		-40.56301	
35.97055	2655.763		-40.54599	
36.0245	2653.389		-40.52777	
36.07845	2651.007		-40.50851	
36.1324	2648.625		-40.48837	
36.18635	2646.244		-40.46753	
36.2403	2643.872		-40.44614	
36.29426	2641.52		-40.42433	
36.34821	2639.197		-40.40226	
36.40216	2636.902		-40.3801	
36.45611	2634.628		-40.358	
36.51006	2632.369		-40.33611	
36.56401	2630.124		-40.31457	
36.61797	2627.883		-40.29345	
36.67192	2625.639		-40.27279	
36.72587	2623.389		-40.25251	
36.77982	2621.135		-40.23248	
36.83377	2618.881		-40.21251	
36.88773	2616.638		-40.19231	
36.94168	2614.417		-40.17159	
36.99563	2612.229		-40.15001	
37.04958	2610.082		-40.12724	
37.10353	2607.981		-40.10299	
37.15749	2605.922		-40.07696	
37.21144	2603.902		-40.04894	
37.26539	2601.919		-40.01874	
37.31934	2599.969		-39.98623	
37.37329	2598.042		-39.95133	
37.42725	2596.132		-39.91404	
37.4812	2594.223		-39.87439	
37.53515	2592.304		-39.83247	
37.5891	2590.364		-39.78842	
37.64305	2588.398		-39.74241	
37.697	2586.405		-39.69465	
37.75096	2584.383		-39.64533	
37.80491	2582.33		-39.59469	
37.85886	2580.242		-39.54292	
37.91281	2578.12		-39.49022	
37.96676	2575.971		-39.43676	
38.02071	2573.807		-39.38271	
38.07467	2571.638		-39.32824	
38.12862	2569.469		-39.27348	
38.18257	2567.301		-39.21859	
38.23652	2565.132		-39.16365	
38.29047	2562.962		-39.10877	
38.34443	2560.786		-39.05406	
38.39838	2558.592		-38.99966	
38.45233	2556.379		-38.94577	
38.50628	2554.152		-38.89259	
38.56023	2551.917		-38.8404	
38.61419	2549.676		-38.78944	
38.66814	2547.437		-38.73995	
38.72209	2545.207		-38.6921	
38.77604	2542.992		-38.64609	
38.82999	2540.797		-38.60204	
38.88395	2538.623		-38.56004	
38.9379	2536.468		-38.52011	
38.99185	2534.334		-38.48224	
39.0458	2532.228		-38.44636	
39.09975	2530.151		-38.41239	
39.1537	2528.095		-38.3802	
39.20766	2526.054		-38.34961	
39.26161	2524.022		-38.32044	
39.31556	2521.994		-38.29245	
39.36951	2519.962		-38.26545	
39.42346	2517.919		-38.23921	
39.47741	2515.861		-38.21356	
39.53136	2513.787		-38.18833	
39.58532	2511.699		-38.16338	
39.63927	2509.604		-38.13864	
39.69322	2507.506		-38.11407	
39.74717	2505.407		-38.08968	
39.80112	2503.312		-38.06551	
39.85508	2501.224		-38.04162	
39.90903	2499.142		-38.01805	
39.96298	2497.072		-37.99482	
40.01693	2495.018		-37.97189	
40.07088	2492.986		-37.94922	
40.12484	2490.982		-37.92669	
40.17879	2489.012		-37.90416	
40.23274	2487.077		-37.8815	
40.28669	2485.178		-37.85854	
40.34064	2483.308		-37.83516	
40.3946	2481.462		-37.81129	
40.44855	2479.634		-37.7869	
40.5025	2477.821		-37.76207	
40.55645	2476.012		-37.73693	
40.6104	2474.199		-37.71166	
40.66435	2472.377		-37.6865	
40.71831	2470.541		-37.66169	
40.77226	2468.685		-37.63756	
40.82621	2466.805		-37.61438	
40.88016	2464.889		-37.59243	
40.93411	2462.93		-37.57197	
40.98806	2460.92		-37.55321	
41.04202	2458.859		-37.53636	
41.09597	2456.749		-37.52159	
41.14992	2454.602		-37.50903	
41.20387	2452.43		-37.49874	
41.25782	2450.246		-37.49076	
41.31178	2448.058		-37.48508	
41.36573	2445.876		-37.48162	
41.41968	2443.708		-37.48028	
41.47363	2441.556		-37.48092	
41.52758	2439.416		-37.48338	
41.58154	2437.282		-37.48751	
41.63549	2435.143		-37.49315	
41.68944	2432.992		-37.50018	
41.74339	2430.829		-37.50847	
41.79734	2428.662		-37.5179	
41.8513	2426.498		-37.52834	
41.90525	2424.344		-37.53964	
41.9592	2422.208		-37.55159	
42.01315	2420.097		-37.56397	
42.0671	2418.017		-37.57648	
42.12105	2415.973		-37.58883	
42.17501	2413.969		-37.60067	
42.22896	2411.996		-37.61163	
42.28291	2410.046		-37.62134	
42.33686	2408.112		-37.62942	
42.39081	2406.19		-37.63551	
42.44476	2404.277		-37.63926	
42.49872	2402.365		-37.64035	
42.55267	2400.447		-37.63854	
42.60662	2398.519		-37.63362	
42.66057	2396.578		-37.62547	
42.71452	2394.624		-37.61404	
42.76847	2392.657		-37.59939	
42.82243	2390.678		-37.58162	
42.87638	2388.69		-37.56093	
42.93033	2386.694		-37.53756	
42.98428	2384.686		-37.51182	
43.03823	2382.666		-37.48407	
43.09219	2380.635		-37.4547	
43.14614	2378.594		-37.42411	
43.20009	2376.544		-37.39273	
43.25404	2374.488		-37.36094	
43.30799	2372.425		-37.3291	
43.36195	2370.361		-37.29753	
43.4159	2368.305		-37.26648	
43.46985	2366.268		-37.23613	
43.5238	2364.257		-37.20667	
43.57775	2362.267		-37.17821	
43.63171	2360.289		-37.15088	
43.68566	2358.315		-37.12477	
43.73961	2356.333		-37.09994	
43.79356	2354.336		-37.07643	
43.84751	2352.316		-37.05424	
43.90146	2350.27		-37.03335	
43.95541	2348.203		-37.01367	
44.00937	2346.125		-36.99507	
44.06332	2344.049		-36.97738	
44.11727	2341.992		-36.96038	
44.17122	2339.96		-36.9438	
44.22517	2337.95		-36.92737	
44.27913	2335.957		-36.9108	
44.33308	2333.978		-36.89381	
44.38703	2332.01		-36.8761	
44.44098	2330.045		-36.85735	
44.49493	2328.077		-36.83725	
44.54889	2326.104		-36.81548	
44.60284	2324.122		-36.79176	
44.65679	2322.132		-36.76582	
44.71074	2320.132		-36.73742	
44.76469	2318.12		-36.7064	
44.81865	2316.103		-36.67264	
44.8726	2314.081		-36.63612	
44.92655	2312.059		-36.59691	
44.9805	2310.048		-36.55519	
45.03445	2308.06		-36.51119	
45.08841	2306.1		-36.46523	
45.14236	2304.174		-36.41766	
45.19631	2302.282		-36.36886	
45.25026	2300.413		-36.31919	
45.30421	2298.553		-36.26904	
45.35816	2296.686		-36.21874	
45.41211	2294.803		-36.16861	
45.46607	2292.898		-36.11895	
45.52002	2290.97		-36.07004	
45.57397	2289.014		-36.02216	
45.62792	2287.032		-35.97556	
45.68187	2285.027		-35.93047	
45.73582	2283.006		-35.88716	
45.78978	2280.975		-35.84587	
45.84373	2278.94		-35.80686	
45.89768	2276.906		-35.77035	
45.95163	2274.878		-35.73654	
46.00558	2272.86		-35.70554	
46.05954	2270.858		-35.67743	
46.11349	2268.873		-35.65219	
46.16744	2266.905		-35.62974	
46.22139	2264.955		-35.60996	
46.27534	2263.017		-35.5927	
46.3293	2261.09		-35.57777	
46.38325	2259.169		-35.56498	
46.4372	2257.252		-35.55415	
46.49115	2255.341		-35.54511	
46.5451	2253.445		-35.5377	
46.59906	2251.57		-35.53176	
46.65301	2249.722		-35.52714	
46.70696	2247.908		-35.52367	
46.76091	2246.128		-35.52116	
46.81486	2244.378		-35.51943	
46.86881	2242.643		-35.51832	
46.92277	2240.912		-35.51771	
46.97672	2239.173		-35.51752	
47.03067	2237.419		-35.51765	
47.08462	2235.646		-35.51804	
47.13857	2233.853		-35.51861	
47.19252	2232.037		-35.5193	
47.24648	2230.201		-35.52006	
47.30043	2228.348		-35.52086	
47.35438	2226.478		-35.52169	
47.40833	2224.596		-35.52258	
47.46228	2222.704		-35.52356	
47.51624	2220.8		-35.52469	
47.57019	2218.883		-35.52601	
47.62414	2216.952		-35.52759	
47.67809	2215.011		-35.52945	
47.73204	2213.063		-35.53162	
47.786	2211.108		-35.53407	
47.83995	2209.146		-35.53678	
47.8939	2207.175		-35.53965	
47.94785	2205.196		-35.54258	
48.0018	2203.206		-35.54542	
48.05576	2201.204		-35.54797	
48.10971	2199.192		-35.55001	
48.16366	2197.175		-35.55124	
48.21761	2195.159		-35.55139	
48.27156	2193.145		-35.55012	
48.32551	2191.131		-35.54713	
48.37947	2189.109		-35.5421	
48.43342	2187.081		-35.53475	
48.48737	2185.056		-35.52481	
48.54132	2183.041		-35.51208	
48.59527	2181.045		-35.49637	
48.64922	2179.076		-35.47757	
48.70317	2177.134		-35.4556	
48.75713	2175.219		-35.43041	
48.81108	2173.327		-35.40202	
48.86503	2171.453		-35.37047	
48.91898	2169.589		-35.33587	
48.97293	2167.722		-35.29832	
49.02689	2165.846		-35.25794	
49.08084	2163.948		-35.21487	
49.13479	2162.021		-35.16925	
49.18874	2160.064		-35.12123	
49.24269	2158.084		-35.071	
49.29665	2156.095		-35.01874	
49.3506	2154.115		-34.96471	
49.40455	2152.153		-34.90921	
49.4585	2150.213		-34.85255	
49.51245	2148.292		-34.79513	
49.56641	2146.387		-34.73734	
49.62036	2144.499		-34.6796	
49.67431	2142.623		-34.62235	
49.72826	2140.754		-34.56602	
49.78221	2138.885		-34.51098	
49.83617	2137.005		-34.45759	
49.89012	2135.107		-34.40614	
49.94407	2133.185		-34.35688	
49.99802	2131.243		-34.30998	
50.05197	2129.292		-34.26559	
50.10592	2127.346		-34.2238	
50.15987	2125.426		-34.18467	
50.21383	2123.549		-34.14819	
50.26778	2121.729		-34.11434	
50.32173	2119.972		-34.08308	
50.37568	2118.274		-34.05429	
50.42963	2116.628		-34.02786	
50.48359	2115.024		-34.00364	
50.53754	2113.445		-33.98148	
50.59149	2111.871		-33.96122	
50.64544	2110.282		-33.94274	
50.69939	2108.66		-33.92593	
50.75335	2106.998		-33.91071	
50.8073	2105.295		-33.89706	
50.86125	2103.555		-33.88498	
50.9152	2101.789		-33.87447	
50.96915	2100.007		-33.86556	
51.02311	2098.22		-33.85833	
51.07706	2096.438		-33.85282	
51.13101	2094.665		-33.84909	
51.18496	2092.899		-33.84719	
51.23891	2091.137		-33.84712	
51.29287	2089.374		-33.84887	
51.34682	2087.603		-33.85238	
51.40077	2085.813		-33.85758	
51.45472	2083.996		-33.86436	
51.50867	2082.148		-33.8726	
51.56262	2080.274		-33.88218	
51.61657	2078.379		-33.89298	
51.67053	2076.473		-33.90491	
51.72448	2074.563		-33.91791	
51.77843	2072.656		-33.93193	
51.83238	2070.755		-33.94695	
51.88633	2068.864		-33.96292	
51.94028	2066.978		-33.97977	
51.99424	2065.099		-33.99746	
52.04819	2063.227		-34.01591	
52.10214	2061.358		-34.03502	
52.15609	2059.486		-34.05468	
52.21004	2057.604		-34.07475	
52.264	2055.708		-34.09504	
52.31795	2053.799		-34.1153	
52.3719	2051.877		-34.13525	
52.42585	2049.948		-34.15459	
52.4798	2048.022		-34.17297	
52.53376	2046.105		-34.19007	
52.58771	2044.196		-34.20556	
52.64166	2042.298		-34.21913	
52.69561	2040.412		-34.23048	
52.74957	2038.542		-34.23934	
52.80352	2036.687		-34.2455	
52.85747	2034.842		-34.24878	
52.91142	2033.001		-34.24903	
52.96537	2031.159		-34.24617	
53.01932	2029.309		-34.24017	
53.07327	2027.453		-34.23103	
53.12723	2025.592		-34.21882	
53.18118	2023.728		-34.20364	
53.23513	2021.863		-34.1856	
53.28908	2020		-34.16485	
53.34303	2018.137		-34.14154	
53.39698	2016.271		-34.11582	
53.45094	2014.403		-34.0878	
53.50489	2012.537		-34.05762	
53.55884	2010.682		-34.02543	
53.61279	2008.845		-33.99139	
53.66674	2007.028		-33.95571	
53.7207	2005.227		-33.91859	
53.77465	2003.442		-33.88029	
53.8286	2001.672		-33.84103	
53.88255	1999.912		-33.8011	
53.9365	1998.154		-33.76077	
53.99046	1996.392		-33.72036	
54.04441	1994.621		-33.68019	
54.09836	1992.835		-33.64061	
54.15231	1991.027		-33.60197	
54.20626	1989.197		-33.56457	
54.26022	1987.35		-33.52868	
54.31417	1985.491		-33.49448	
54.36812	1983.631		-33.46211	
54.42207	1981.787		-33.43165	
54.47602	1979.962		-33.40311	
54.52997	1978.153		-33.37646	
54.58393	1976.357		-33.35163	
54.63788	1974.569		-33.32849	
54.69183	1972.785		-33.30686	
54.74578	1971.001		-33.28653	
54.79973	1969.207		-33.26725	
54.85368	1967.4		-33.24874	
54.90763	1965.579		-33.23072	
54.96159	1963.743		-33.21288	
55.01554	1961.893		-33.19496	
55.06949	1960.036		-33.17667	
55.12344	1958.184		-33.15774	
55.17739	1956.35		-33.13795	
55.23135	1954.548		-33.11712	
55.2853	1952.786		-33.09509	
55.33925	1951.063		-33.07177	
55.3932	1949.375		-33.04708	
55.44715	1947.712		-33.02099	
55.50111	1946.067		-32.99351	
55.55506	1944.435		-32.96466	
55.60901	1942.806		-32.93455	
55.66296	1941.167		-32.90326	
55.71692	1939.504		-32.87093	
55.77087	1937.812		-32.8377	
55.82482	1936.086		-32.80371	
55.87877	1934.327		-32.76916	
55.93272	1932.543		-32.73423	
55.98667	1930.746		-32.69915	
56.04063	1928.949		-32.66421	
56.09458	1927.158		-32.62972	
56.14853	1925.369		-32.59599	
56.20248	1923.576		-32.56335	
56.25643	1921.771		-32.53206	
56.31038	1919.947		-32.50238	
56.36433	1918.107		-32.47451	
56.41829	1916.253		-32.4486	
56.47224	1914.386		-32.42474	
56.52619	1912.508		-32.40294	
56.58014	1910.621		-32.38313	
56.63409	1908.729		-32.36513	
56.68805	1906.835		-32.34874	
56.742	1904.946		-32.33368	
56.79595	1903.068		-32.3196	
56.8499	1901.214		-32.30617	
56.90385	1899.394		-32.293	
56.95781	1897.614		-32.27972	
57.01176	1895.871		-32.26595	
57.06571	1894.159		-32.25129	
57.11966	1892.473		-32.23535	
57.17361	1890.806		-32.2178	
57.22757	1889.153		-32.19835	
57.28152	1887.509		-32.1767	
57.33547	1885.873		-32.15268	
57.38942	1884.248		-32.12615	
57.44337	1882.633		-32.09704	
57.49732	1881.029		-32.06538	
57.55128	1879.432		-32.03126	
57.60523	1877.844		-31.99483	
57.65918	1876.263		-31.95633	
57.71313	1874.688		-31.91604	
57.76708	1873.116		-31.87429	
57.82103	1871.537		-31.83143	
57.87499	1869.942		-31.78784	
57.92894	1868.323		-31.74394	
57.98289	1866.675		-31.70012	
58.03684	1864.994		-31.65679	
58.09079	1863.281		-31.61436	
58.14474	1861.536		-31.57319	
58.1987	1859.757		-31.5336	
58.25265	1857.946		-31.49588	
58.3066	1856.106		-31.4603	
58.36055	1854.243		-31.42705	
58.41451	1852.366		-31.39632	
58.46846	1850.482		-31.36822	
58.52241	1848.604		-31.34277	
58.57636	1846.742		-31.31994	
58.63031	1844.9		-31.29958	
58.68427	1843.075		-31.28149	
58.73822	1841.265		-31.26535	
58.79217	1839.472		-31.25083	
58.84612	1837.702		-31.23756	
58.90007	1835.954		-31.22514	
58.95402	1834.228		-31.21316	
59.00798	1832.527		-31.20119	
59.06193	1830.859		-31.18877	
59.11588	1829.232		-31.17546	
59.16983	1827.649		-31.16079	
59.22378	1826.104		-31.14433	
59.27773	1824.592		-31.12569	
59.33169	1823.104		-31.1045	
59.38564	1821.633		-31.08047	
59.43959	1820.167		-31.05338	
59.49354	1818.693		-31.02308	
59.54749	1817.202		-30.98947	
59.60144	1815.688		-30.95257	
59.6554	1814.147		-30.91245	
59.70935	1812.575		-30.8693	
59.7633	1810.971		-30.82338	
59.81725	1809.334		-30.77498	
59.8712	1807.67		-30.72451	
59.92516	1805.984		-30.67237	
59.97911	1804.276		-30.61901	
60.03306	1802.547		-30.56489	
60.08701	1800.802		-30.51045	
60.14096	1799.046		-30.45613	
60.19492	1797.276		-30.40232	
60.24887	1795.495		-30.34937	
60.30282	1793.703		-30.29758	
60.35677	1791.906		-30.2472	
60.41072	1790.104		-30.19839	
60.46468	1788.3		-30.15129	
60.51863	1786.504		-30.10595	
60.57258	1784.721		-30.06239	
60.62653	1782.96		-30.02059	
60.68048	1781.226		-29.98043	
60.73443	1779.528		-29.94175	
60.78838	1777.871		-29.90432	
60.84234	1776.256		-29.86788	
60.89629	1774.673		-29.83214	
60.95024	1773.114		-29.7968	
61.00419	1771.572		-29.76152	
61.05814	1770.04		-29.72595	
61.11209	1768.512		-29.6897	
61.16605	1766.988		-29.65236	
61.22	1765.468		-29.61353	
61.27395	1763.955		-29.57286	
61.3279	1762.455		-29.52999	
61.38186	1760.966		-29.48463	
61.43581	1759.482		-29.43651	
61.48976	1757.999		-29.38539	
61.54371	1756.512		-29.33107	
61.59766	1755.019		-29.27342	
61.65162	1753.517		-29.21232	
61.70557	1752.005		-29.1477	
61.75952	1750.481		-29.07951	
61.81347	1748.944		-29.00772	
61.86742	1747.397		-28.93233	
61.92138	1745.84		-28.85333	
61.97533	1744.272		-28.77077	
62.02928	1742.69		-28.68467	
62.08323	1741.099		-28.59506	
62.13718	1739.501		-28.502	
62.19113	1737.896		-28.40551	
62.24508	1736.288		-28.30563	
62.29904	1734.681		-28.20234	
62.35299	1733.078		-28.09559	
62.40694	1731.484		-27.9853	
62.46089	1729.905		-27.87132	
62.51484	1728.341		-27.75349	
62.56879	1726.787		-27.63162	
62.62275	1725.235		-27.50547	
62.6767	1723.684		-27.37485	
62.73065	1722.137		-27.23945	
62.7846	1720.595		-27.099	
62.83855	1719.059		-26.95319	
62.89251	1717.535		-26.80171	
62.94646	1716.026		-26.64421	
63.00041	1714.534		-26.48034	
63.05436	1713.057		-26.30975	
63.10831	1711.584		-26.13205	
63.16227	1710.105		-25.94687	
63.21622	1708.616		-25.75384	
63.27017	1707.122		-25.55262	
63.32412	1705.633		-25.34288	
63.37807	1704.156		-25.1243	
63.43203	1702.693		-24.8966	
63.48598	1701.24		-24.65947	
63.53993	1699.795		-24.41265	
63.59388	1698.359		-24.15589	
63.64783	1696.937		-23.88896	
63.70178	1695.536		-23.6116	
63.75574	1694.155		-23.32357	
63.80969	1692.788		-23.02462	
63.86364	1691.431		-22.71442	
63.91759	1690.085		-22.39264	
63.97154	1688.751		-22.05891	
64.0255	1687.428		-21.71279	
64.07944	1686.121		-21.35391	
64.1334	1684.836		-20.98171	
64.18735	1683.577		-20.59576	
64.2413	1682.345		-20.19546	
64.29526	1681.14		-19.78031	
64.34921	1679.963		-19.34979	
64.40316	1678.82		-18.90319	
64.45711	1677.712		-18.44	
64.51106	1676.64		-17.95945	
64.56501	1675.607		-17.46098	
64.61897	1674.613		-16.94379	
64.67292	1673.654		-16.4073	
64.72687	1672.723		-15.85088	
64.78082	1671.813		-15.27371	
64.83477	1670.92		-14.67528	
64.88873	1670.044		-14.05475	
64.94267	1669.189		-13.41157	
64.99663	1668.361		-12.74487	
65.05058	1667.561		-12.05398	
65.10453	1666.789		-11.33823	
65.15849	1666.035		-10.59664	
65.21243	1665.298		-9.828633	
65.26639	1664.579		-9.033198	
65.32034	1663.881		-8.209689	
65.37429	1663.205		-7.35705	
65.42825	1662.552		-6.474493	
65.48219	1661.927		-5.561225	
65.53615	1661.331		-4.616025	
65.5901	1660.77		-3.638152	
65.64405	1660.252		-2.626312	
65.698	1659.779		-1.579695	
65.75195	1659.348		-0.4969948	
65.80591	1658.959		0.6227307	
65.85986	1658.613		1.780407	
65.91381	1658.312		2.977484	
65.96776	1658.057		4.214783	
66.02171	1657.85		5.493838	
66.07566	1657.697		6.815592	
66.12962	1657.606		8.18163	
66.18357	1657.583		9.59308	
66.23752	1657.629		11.05103	
66.29147	1657.75		12.55722	
66.34542	1657.958		14.11252	
66.39938	1658.265		15.71865	
66.45332	1658.668		17.37648	
66.50728	1659.166		19.08763	
66.56123	1659.759		20.85307	
66.61518	1660.446		22.67365	
66.66914	1661.229		24.55095	
66.72308	1662.105		26.48541	
66.77704	1663.07		28.4785	
66.83099	1664.117		30.53078	
66.88494	1665.246		32.64268	
66.9389	1666.465		34.81544	
66.99284	1667.781		37.04902	
67.0468	1669.203		39.34455	
67.10075	1670.738		41.70184	
67.1547	1672.394		44.12191	
67.20866	1674.175		46.60476	
67.2626	1676.087		49.15032	
67.31656	1678.131		51.75954	
67.37051	1680.306		54.43188	
67.42446	1682.607		57.16828	
67.47841	1685.035		59.96809	
67.53236	1687.601		62.83222	
67.58632	1690.315		65.76038	
67.64027	1693.185		68.75219	
67.69422	1696.214		71.80853	
67.74817	1699.403		74.92854	
67.80212	1702.761		78.11303	
67.85607	1706.296		81.36105	
67.91003	1710.018		84.67345	
67.96398	1713.935		88.04967	
68.01793	1718.052		91.48914	
68.07188	1722.38		94.99277	
68.12583	1726.922		98.55946	
68.17979	1731.682		102.1901	
68.23373	1736.657		105.8837	
68.28769	1741.844		109.6411	
68.34164	1747.245		113.4618	
68.39559	1752.861		117.345	
68.44955	1758.697		121.2917	
68.50349	1764.752		125.3007	
68.55745	1771.033		129.3727	
68.6114	1777.55		133.5065	
68.66535	1784.319		137.703	
68.71931	1791.351		141.9614	
68.77325	1798.646		146.2806	
68.82721	1806.203		150.6615	
68.88116	1814.013		155.1025	
68.93511	1822.07		159.6043	
68.98906	1830.364		164.1648	
69.04301	1838.893		168.7847	
69.09697	1847.656		173.4623	
69.15092	1856.652		178.1958	
69.20487	1865.889		182.9855	
69.25882	1875.374		187.8284	
69.31277	1885.12		192.7244	
69.36672	1895.135		197.6703	
69.42068	1905.419		202.6653	
69.47463	1915.973		207.7066	
69.52858	1926.799		212.7905	
69.58253	1937.909		217.9157	
69.63648	1949.306		223.0773	
69.69044	1961		228.273	
69.74438	1972.991		233.4974	
69.79834	1985.281		238.7472	
69.85229	1997.872		244.0167	
69.90624	2010.76		249.2998	
69.9602	2023.944		254.592	
70.01414	2037.418		259.8853	
70.0681	2051.181		265.1746	
70.12206	2065.235		270.4515	
70.176	2079.585		275.7075	
70.22996	2094.24		280.9358	
70.28391	2109.207		286.1261	
70.33786	2124.498		291.2706	
70.39181	2140.12		296.3581	
70.44576	2156.088		301.3802	
70.49972	2172.407		306.3256	
70.55367	2189.079		311.1831	
70.60762	2206.108		315.943	
70.66157	2223.483		320.593	
70.71552	2241.203		325.1231	
70.76947	2259.257		329.521	
70.82343	2277.645		333.7766	
70.87738	2296.359		337.8781	
70.93133	2315.39		341.8141	
70.98528	2334.744		345.5747	
71.03923	2354.419		349.1484	
71.09319	2374.429		352.5258	
71.14713	2394.778		355.6962	
71.20109	2415.488		358.651	
71.25504	2436.572		361.3809	
71.30899	2458.037		363.8773	
71.36295	2479.896		366.1331	
71.41689	2502.142		368.1408	
71.47085	2524.765		369.8946	
71.5248	2547.738		371.3883	
71.57875	2571.034		372.6176	
71.63271	2594.619		373.5781	
71.68665	2618.455		374.2663	
71.74061	2642.518		374.68	
71.79456	2666.778		374.817	
71.84851	2691.221		374.6762	
71.90246	2715.82		374.2574	
71.95641	2740.558		373.5606	
72.01037	2765.406		372.5871	
72.06432	2790.333		371.3386	
72.11827	2815.318		369.8172	
72.17222	2840.315		368.0263	
72.22617	2865.285		365.969	
72.28012	2890.164		363.65	
72.33408	2914.896		361.0734	
72.38803	2939.409		358.2448	
72.44198	2963.637		355.1702	
72.49593	2987.537		351.8551	
72.54988	3011.058		348.3069	
72.60384	3034.167		344.5317	
72.65778	3056.826		340.538	
72.71174	3079.012		336.3324	
72.76569	3100.695		331.9235	
72.81964	3121.842		327.3205	
72.8736	3142.432		322.5307	
72.92754	3162.441		317.5646	
72.9815	3181.863		312.43	
73.03545	3200.671		307.1379	
73.0894	3218.844		301.6966	
73.14336	3236.359		296.1171	
73.1973	3253.199		290.4105	
73.25126	3269.364		284.5859	
73.30521	3284.846		278.656	
73.35916	3299.662		272.6303	
73.41312	3313.818		266.5212	
73.46706	3327.33		260.3412	
73.52102	3340.218		254.1004	
73.57497	3352.494		247.8126	
73.62892	3364.181		241.4882	
73.68287	3375.302		235.1411	
73.73682	3385.891		228.7817	
73.79078	3395.982		222.4231	
73.84473	3405.613		216.0784	
73.89868	3414.811		209.7576	
73.95263	3423.592		203.4745	
74.00658	3431.97		197.2388	
74.06053	3439.959		191.0636	
74.11449	3447.584		184.958	
74.16844	3454.866		178.9334	
74.22239	3461.83		173.0006	
74.27634	3468.501		167.1672	
74.33029	3474.891		161.4437	
74.38425	3481.014		155.8363	
74.43819	3486.887		150.3542	
74.49215	3492.532		145.0021	
74.5461	3497.97		139.7868	
74.60005	3503.23		134.7139	
74.65401	3508.337		129.7859	
74.70795	3513.311		125.0076	
74.76191	3518.167		120.38	
74.81586	3522.898		115.906	
74.86981	3527.501		111.585	
74.92377	3531.977		107.4175	
74.97771	3536.332		103.4034	
75.03167	3540.562		99.53994	
75.08562	3544.656		95.82603	
75.13957	3548.605		92.25787	
75.19352	3552.41		88.83318	
75.24747	3556.073		85.54733	
75.30143	3559.607		82.39673	
75.35538	3563.019		79.37743	
75.40933	3566.319		76.48395	
75.46328	3569.52		73.7123	
75.51723	3572.637		71.0567	
75.57118	3575.672		68.51288	
75.62514	3578.624		66.07507	
75.67909	3581.482		63.73862	
75.73304	3584.238		61.49891	
75.78699	3586.89		59.3505	
75.84094	3589.437		57.28933	
75.8949	3591.88		55.31039	
75.94884	3594.219		53.40999	
76.0028	3596.458		51.58366	
76.05676	3598.6		49.82796	
76.1107	3600.657		48.13972	
76.16466	3602.651		46.51529	
76.21861	3604.61		44.95221	
76.27256	3606.556		43.44739	
76.32651	3608.505		41.9988	
76.38046	3610.464		40.60382	
76.43442	3612.44		39.26063	
76.48837	3614.434		37.96751	
76.54232	3616.441		36.72231	
76.59627	3618.45		35.52368	
76.65022	3620.445		34.36964	
76.70418	3622.402		33.25877	
76.75813	3624.298		32.18968	
76.81208	3626.121		31.16056	
76.86603	3627.862		30.17024	
76.91998	3629.517		29.217	
76.97393	3631.082		28.29966	
77.02789	3632.546		27.41652	
77.08184	3633.903		26.56631	
77.13579	3635.152		25.74775	
77.18974	3636.297		24.95933	
77.24369	3637.346		24.20004	
77.29765	3638.302		23.46852	
77.35159	3639.157		22.76397	
77.40555	3639.906		22.08525	
77.4595	3640.551		21.43161	
77.51345	3641.097		20.80237	
77.56741	3641.552		20.19671	
77.62135	3641.927		19.61426	
77.67531	3642.239		19.05442	
77.72926	3642.508		18.51701	
77.78321	3642.758		18.00159	
77.83717	3643.009		17.50805	
77.89111	3643.281		17.0363	
77.94507	3643.597		16.58619	
77.99902	3643.97		16.15782	
78.05297	3644.407		15.75116	
78.10692	3644.907		15.36643	
78.16087	3645.47		15.00366	
78.21483	3646.097		14.66311	
78.26878	3646.778		14.34502	
78.32273	3647.501		14.04949	
78.37668	3648.247		13.77682	
78.43063	3648.999		13.52706	
78.48458	3649.743		13.30035	
78.53854	3650.477		13.09659	
78.59249	3651.206		12.9156	
78.64644	3651.931		12.75699	
78.70039	3652.651		12.62013	
78.75434	3653.367		12.50424	
78.8083	3654.089		12.40832	
78.86224	3654.821		12.33118	
78.9162	3655.564		12.27143	
78.97015	3656.308		12.22751	
79.0241	3657.032		12.19768	
79.07806	3657.719		12.18013	
79.132	3658.354		12.17297	
79.18596	3658.925		12.17436	
79.23991	3659.426		12.18245	
79.29386	3659.858		12.19549	
79.34782	3660.235		12.21178	
79.40176	3660.581		12.22973	
79.45572	3660.916		12.24789	
79.50967	3661.261		12.26496	
79.56362	3661.632		12.27981	
79.61757	3662.045		12.29145	
79.67152	3662.511		12.29906	
79.72548	3663.043		12.30194	
79.77943	3663.644		12.29959	
79.83338	3664.309		12.2917	
79.88733	3665.03		12.27812	
79.94128	3665.796		12.25888	
79.99524	3666.589		12.23418	
80.04919	3667.388		12.20434	
80.10314	3668.176		12.16981	
80.15709	3668.947		12.13114	
80.21104	3669.707		12.08893	
80.26499	3670.468		12.0439	
80.31895	3671.247		11.99677	
80.3729	3672.06		11.94832	
80.42685	3672.917		11.89937	
80.4808	3673.832		11.85066	
80.53475	3674.81		11.80292	
80.58871	3675.849		11.75672	
80.64265	3676.93		11.71254	
80.69661	3678.023		11.67064	
80.75056	3679.101		11.63112	
80.80451	3680.143		11.59388	
80.85847	3681.134		11.55858	
80.91241	3682.066		11.52469	
80.96637	3682.935		11.49144	
81.02032	3683.739		11.45783	
81.07427	3684.476		11.42272	
81.12823	3685.147		11.38479	
81.18217	3685.751		11.34262	
81.23613	3686.289		11.2947	
81.29008	3686.767		11.23946	
81.34403	3687.198		11.17525	
81.39798	3687.592		11.10051	
81.45193	3687.953		11.01367	
81.50589	3688.284		10.91334	
81.55984	3688.584		10.79826	
81.61379	3688.853		10.66731	
81.66774	3689.097		10.51955	
81.72169	3689.33		10.35414	
81.77564	3689.559		10.17048	
81.8296	3689.795		9.96806	
81.88355	3690.046		9.746567	
81.9375	3690.315		9.505854	
81.99146	3690.607		9.245794	
82.0454	3690.927		8.966497	
82.09936	3691.282		8.667985	
82.15331	3691.673		8.35049	
82.20726	3692.096		8.014112	
82.26122	3692.549		7.659128	
82.31516	3693.031		7.285862	
82.36912	3693.544		6.894516	
82.42307	3694.092		6.485525	
82.47702	3694.681		6.059114	
82.53097	3695.318		5.61575	
82.58492	3696.012		5.155637	
82.63888	3696.76		4.679137	
82.69283	3697.547		4.186578	
82.74678	3698.359		3.678025	
82.80073	3699.176		3.153767	
82.85468	3699.986		2.613735	
82.90863	3700.781		2.058104	
82.96259	3701.553		1.486679	
83.01654	3702.293		0.899435	
83.07049	3702.989		0.296286	
83.12444	3703.625		-0.3231632	
83.17839	3704.183		-0.9590123	
83.23235	3704.654		-1.611769	
83.28629	3705.038		-2.281632	
83.34025	3705.339		-2.969211	
83.3942	3705.555		-3.674833	
83.44815	3705.692		-4.398794	
83.50211	3705.75		-5.141653	
83.55605	3705.728		-5.903487	
83.61001	3705.626		-6.684713	
83.66396	3705.446		-7.485331	
83.71791	3705.193		-8.305237	
83.77187	3704.868		-9.144583	
83.82581	3704.468		-10.00296	
83.87977	3703.984		-10.88036	
83.93372	3703.41		-11.77613	
83.98767	3702.745		-12.69002	
84.04163	3701.997		-13.62127	
84.09557	3701.177		-14.56904	
84.14953	3700.295		-15.53277	
84.20348	3699.361		-16.51131	
84.25743	3698.374		-17.50396	
84.31138	3697.332		-18.50937	
84.36533	3696.237		-19.5267	
84.41929	3695.095		-20.55461	
84.47324	3693.912		-21.5917	
84.52719	3692.691		-22.63696	
84.58114	3691.432		-23.68874	
84.63509	3690.125		-24.74592	
84.68904	3688.759		-25.80677	
84.743	3687.323		-26.87012	
84.79695	3685.808		-27.93432	
84.8509	3684.213		-28.99777	
84.90485	3682.534		-30.05931	
84.9588	3680.769		-31.11721	
85.01276	3678.919		-32.17036	
85.0667	3676.99		-33.21708	
85.12066	3674.987		-34.25632	
85.17461	3672.914		-35.28659	
85.22856	3670.779		-36.30642	
85.28252	3668.59		-37.31485	
85.33646	3666.35		-38.31034	
85.39042	3664.058		-39.292	
85.44437	3661.715		-40.25838	
85.49832	3659.324		-41.2087	
85.55228	3656.893		-42.14178	
85.60622	3654.431		-43.05657	
85.66018	3651.949		-43.9525	
85.71413	3649.456		-44.82861	
85.76808	3646.957		-45.68457	
85.82203	3644.454		-46.51973	
85.87598	3641.945		-47.33408	
85.92994	3639.43		-48.12737	
85.98389	3636.906		-48.89953	
86.03784	3634.357		-49.65091	
86.09179	3631.761		-50.38154	
86.14574	3629.099		-51.09198	
86.19969	3626.354		-51.78247	
86.25365	3623.511		-52.45372	
86.3076	3620.564		-53.10622	
86.36155	3617.508		-53.74053	
86.4155	3614.344		-54.35752	
86.46945	3611.083		-54.95777	
86.52341	3607.742		-55.54227	
86.57735	3604.341		-56.11169	
86.63131	3600.892		-56.66708	
86.68526	3597.409		-57.20926	
86.73921	3593.896		-57.739	
86.79317	3590.36		-58.25729	
86.84711	3586.804		-58.76474	
86.90107	3583.225		-59.26222	
86.95502	3579.61		-59.75033	
87.00897	3575.949		-60.22959	
87.06293	3572.239		-60.70064	
87.11687	3568.488		-61.16375	
87.17083	3564.707		-61.61932	
87.22478	3560.913		-62.06739	
87.27873	3557.122		-62.50816	
87.33269	3553.356		-62.94152	
87.38663	3549.633		-63.36729	
87.44059	3545.968		-63.78539	
87.49454	3542.372		-64.19538	
87.54849	3538.845		-64.59702	
87.60244	3535.384		-64.98976	
87.65639	3531.976		-65.37324	
87.71035	3528.61		-65.7469	
87.7643	3525.267		-66.11024	
87.81825	3521.927		-66.46291	
87.8722	3518.572		-66.80445	
87.92616	3515.195		-67.1347	
87.9801	3511.801		-67.45341	
88.03406	3508.395		-67.76063	
88.08801	3504.982		-68.05639	
88.14196	3501.561		-68.34084	
88.19592	3498.134		-68.61431	
88.24986	3494.706		-68.8771	
88.30382	3491.276		-69.12971	
88.35777	3487.835		-69.37261	
88.41172	3484.369		-69.60649	
88.46568	3480.864		-69.83203	
88.51962	3477.305		-70.04996	
88.57358	3473.681		-70.26117	
88.62753	3469.992		-70.46646	
88.68148	3466.237		-70.66676	
88.73543	3462.42		-70.86292	
88.78938	3458.544		-71.05587	
88.84334	3454.62		-71.24648	
88.89729	3450.647		-71.43556	
88.95124	3446.625		-71.62399	
89.00519	3442.555		-71.81245	
89.05914	3438.44		-72.0017	
89.11309	3434.283		-72.19228	
89.16705	3430.081		-72.38472	
89.221	3425.828		-72.57933	
89.27495	3421.531		-72.77628	
89.3289	3417.204		-72.97567	
89.38285	3412.865		-73.17734	
89.43681	3408.531		-73.38105	
89.49075	3404.222		-73.58634	
89.54471	3399.947		-73.7927	
89.59866	3395.712		-73.9994	
89.65261	3391.521		-74.20563	
89.70657	3387.377		-74.41054	
89.76051	3383.281		-74.61311	
89.81447	3379.231		-74.81241	
89.86842	3375.218		-75.00734	
89.92237	3371.227		-75.19694	
89.97633	3367.243		-75.38017	
90.03027	3363.254		-75.55608	
90.08423	3359.245		-75.72384	
90.13818	3355.215		-75.88262	
90.19213	3351.171		-76.03178	
90.24609	3347.118		-76.17074	
90.30003	3343.057		-76.299	
90.35399	3338.99		-76.41629	
90.40794	3334.918		-76.52235	
90.46189	3330.84		-76.61713	
90.51584	3326.75		-76.70066	
90.56979	3322.648		-76.77306	
90.62375	3318.541		-76.8345	
90.6777	3314.435		-76.88522	
90.73165	3310.334		-76.92555	
90.7856	3306.242		-76.95586	
90.83955	3302.156		-76.97659	
90.8935	3298.07		-76.98827	
90.94746	3293.977		-76.99145	
91.00141	3289.869		-76.98677	
91.05536	3285.741		-76.97493	
91.10931	3281.584		-76.95666	
91.16326	3277.396		-76.93276	
91.21722	3273.176		-76.90403	
91.27116	3268.925		-76.87125	
91.32512	3264.646		-76.83517	
91.37907	3260.344		-76.79649	
91.43302	3256.028		-76.75584	
91.48698	3251.707		-76.71375	
91.54092	3247.39		-76.67073	
91.59488	3243.079		-76.62723	
91.64883	3238.773		-76.58361	
91.70278	3234.468		-76.54017	
91.75674	3230.16		-76.49713	
91.81068	3225.85		-76.4547	
91.86464	3221.534		-76.41298	
91.91859	3217.214		-76.37208	
91.97254	3212.895		-76.332	
92.02649	3208.577		-76.29271	
92.08044	3204.255		-76.2541	
92.1344	3199.938		-76.21605	
92.18835	3195.637		-76.1784	
92.2423	3191.362		-76.14098	
92.29625	3187.128		-76.10367	
92.3502	3182.947		-76.0663	
92.40415	3178.832		-76.02875	
92.45811	3174.789		-75.99119	
92.51206	3170.815		-75.95895	
92.56601	3166.893		-75.93031	
92.61996	3163.003		-75.90367	
92.67391	3159.126		-75.87788	
92.72787	3155.244		-75.85217	
92.78181	3151.349		-75.82604	
92.83577	3147.436		-75.79926	
92.88972	3143.513		-75.77171	
92.94367	3139.587		-75.74335	
92.99763	3135.658		-75.71421	
93.05157	3131.725		-75.68435	
93.10553	3127.788		-75.65382	
93.15948	3123.857		-75.62273	
93.21343	3119.931		-75.59116	
93.26739	3116.009		-75.5592	
93.32133	3112.093		-75.52695	
93.37529	3108.183		-75.49448	
93.42924	3104.268		-75.46191	
93.48319	3100.338		-75.42931	
93.53715	3096.385		-75.39676	
93.59109	3092.412		-75.36434	
93.64505	3088.418		-75.33214	
93.699	3084.406		-75.30022	
93.75295	3080.38		-75.26864	
93.8069	3076.345		-75.2375	
93.86086	3072.304		-75.20683	
93.91481	3068.264		-75.17672	
93.96876	3064.231		-75.14722	
94.02271	3060.206		-75.11837	
94.07666	3056.144		-75.09025	
94.13062	3052.034		-75.06288	
94.18456	3047.895		-75.03633	
94.23852	3043.739		-75.0106	
94.29247	3039.571		-74.98576	
94.34642	3035.396		-74.96181	
94.40038	3031.214		-74.93877	
94.45432	3027.027		-74.91668	
94.50828	3022.837		-74.89553	
94.56223	3018.644		-74.87534	
94.61618	3014.448		-74.85611	
94.67014	3010.248		-74.83784	
94.72408	3006.046		-74.82055	
94.77804	3001.841		-74.80419	
94.83199	2997.632		-74.78879	
94.88594	2993.418		-74.77431	
94.93989	2989.2		-74.76076	
94.99384	2984.975		-74.74809	
