T[Â°C]	350nm [counts / mm]	S.D.	First derivative	S.D. of first derivative
20.00059	4364.228		-62.5115	
20.0547	4360.626		-62.51552	
20.10881	4357.027		-62.51959	
20.16292	4353.429		-62.52372	
20.21702	4349.832		-62.5279	
20.27113	4346.235		-62.53213	
20.32524	4342.638		-62.5364	
20.37935	4339.041		-62.5407	
20.43346	4335.445		-62.54502	
20.48757	4331.851		-62.54935	
20.54167	4328.26		-62.55369	
20.59578	4324.675		-62.55802	
20.64989	4321.096		-62.56233	
20.704	4317.525		-62.5666	
20.75811	4313.964		-62.57082	
20.81221	4310.415		-62.57498	
20.86632	4306.881		-62.57906	
20.92043	4303.373		-62.58303	
20.97454	4299.964		-62.58689	
21.02865	4296.585		-62.5906	
21.08276	4293.226		-62.59415	
21.13686	4289.877		-62.59751	
21.19097	4286.536		-62.60066	
21.24508	4283.192		-62.60358	
21.29919	4279.845		-62.60625	
21.3533	4276.503		-62.60863	
21.4074	4273.174		-62.61073	
21.46151	4269.862		-62.6125	
21.51562	4266.569		-62.61391	
21.56973	4263.29		-62.61495	
21.62384	4260.015		-62.61559	
21.67795	4256.742		-62.61581	
21.73205	4253.47		-62.61559	
21.78616	4250.199		-62.6149	
21.84027	4246.921		-62.61374	
21.89438	4243.629		-62.61211	
21.94849	4240.316		-62.61001	
22.0026	4236.974		-62.60744	
22.0567	4233.597		-62.60445	
22.11081	4230.187		-62.60105	
22.16492	4226.746		-62.59731	
22.21903	4223.277		-62.5933	
22.27314	4219.785		-62.58912	
22.32724	4216.273		-62.5849	
22.38135	4212.745		-62.58078	
22.43546	4209.209		-62.57693	
22.48957	4205.671		-62.57354	
22.54368	4202.139		-62.57078	
22.59779	4198.621		-62.56881	
22.65189	4195.127		-62.53495	
22.706	4191.66		-62.4959	
22.76011	4188.215		-62.45145	
22.81422	4184.786		-62.40149	
22.86833	4181.374		-62.34597	
22.92243	4177.979		-62.28492	
22.97654	4174.605		-62.21847	
23.03065	4171.246		-62.14684	
23.08476	4167.895		-62.07037	
23.13887	4164.553		-61.98946	
23.19298	4161.214		-61.90461	
23.24708	4157.876		-61.81638	
23.30119	4154.534		-61.72533	
23.3553	4151.182		-61.63201	
23.40941	4147.818		-61.53693	
23.46352	4144.442		-61.44055	
23.51762	4141.057		-61.3433	
23.57173	4137.661		-61.24557	
23.62584	4134.249		-61.14774	
23.67995	4130.819		-61.05018	
23.73406	4127.374		-60.95324	
23.78817	4123.915		-60.85729	
23.84227	4120.441		-60.76267	
23.89638	4116.958		-60.66968	
23.95049	4113.478		-60.57859	
24.0046	4110.018		-60.48967	
24.05871	4106.583		-60.40317	
24.11282	4103.172		-60.31933	
24.16692	4099.787		-60.23839	
24.22103	4096.429		-60.16054	
24.27514	4093.099		-60.08596	
24.32925	4089.798		-60.01476	
24.38336	4086.531		-59.94699	
24.43746	4083.299		-59.88264	
24.49157	4080.109		-59.82161	
24.54568	4076.973		-59.76377	
24.59979	4073.896		-59.70897	
24.6539	4070.883		-59.65704	
24.70801	4067.928		-59.6078	
24.76211	4065.021		-59.56113	
24.81622	4062.148		-59.51693	
24.87033	4059.303		-59.47513	
24.92444	4056.48		-59.4357	
24.97855	4053.673		-59.39867	
25.03265	4050.874		-59.36412	
25.08676	4048.072		-59.33218	
25.14087	4045.25		-59.30304	
25.19498	4042.391		-59.27692	
25.24909	4039.48		-59.25408	
25.3032	4036.501		-59.23478	
25.3573	4033.445		-59.21928	
25.41141	4030.309		-59.20783	
25.46552	4027.105		-59.20063	
25.51963	4023.849		-59.19786	
25.57374	4020.551		-59.1996	
25.62785	4017.222		-59.20585	
25.68195	4013.873		-59.21651	
25.73606	4010.514		-59.23141	
25.79017	4007.146		-59.25029	
25.84428	4003.772		-59.27285	
25.89839	4000.399		-59.29867	
25.95249	3997.045		-59.32729	
26.0066	3993.723		-59.3582	
26.06071	3990.432		-59.39087	
26.11482	3987.166		-59.42476	
26.16893	3983.917		-59.45926	
26.22304	3980.671		-59.49377	
26.27714	3977.418		-59.52766	
26.33125	3974.147		-59.56032	
26.38536	3970.853		-59.5911	
26.43947	3967.54		-59.61936	
26.49358	3964.22		-59.64447	
26.54768	3960.902		-59.66581	
26.60179	3957.593		-59.68281	
26.6559	3954.297		-59.69487	
26.71001	3951.022		-59.70149	
26.76412	3947.771		-59.70222	
26.81823	3944.542		-59.69673	
26.87233	3941.333		-59.68474	
26.92644	3938.14		-59.66609	
26.98055	3934.95		-59.64072	
27.03466	3931.751		-59.60868	
27.08877	3928.529		-59.57016	
27.14288	3925.277		-59.52546	
27.19698	3921.987		-59.47502	
27.25109	3918.651		-59.41942	
27.3052	3915.258		-59.35938	
27.35931	3911.805		-59.29567	
27.41342	3908.312		-59.22917	
27.46752	3904.809		-59.16072	
27.52163	3901.322		-59.09114	
27.57574	3897.873		-59.0212	
27.62985	3894.475		-58.95154	
27.68396	3891.133		-58.88274	
27.73807	3887.843		-58.81526	
27.79217	3884.596		-58.74944	
27.84628	3881.377		-58.68552	
27.90039	3878.172		-58.62362	
27.9545	3874.972		-58.5638	
28.00861	3871.773		-58.50607	
28.06271	3868.58		-58.45037	
28.11682	3865.404		-58.39663	
28.17093	3862.26		-58.34473	
28.22504	3859.15		-58.29457	
28.27915	3856.075		-58.24607	
28.33326	3853.036		-58.19915	
28.38736	3850.037		-58.15381	
28.44147	3847.09		-58.11005	
28.49558	3844.196		-58.06793	
28.54969	3841.348		-58.02752	
28.6038	3838.536		-57.98887	
28.6579	3835.747		-57.95198	
28.71201	3832.971		-57.91684	
28.76612	3830.186		-57.88341	
28.82023	3827.368		-57.85162	
28.87434	3824.507		-57.82139	
28.92845	3821.595		-57.79269	
28.98255	3818.639		-57.76548	
29.03666	3815.651		-57.73981	
29.09077	3812.639		-57.71574	
29.14488	3809.617		-57.69341	
29.19899	3806.595		-57.67301	
29.2531	3803.57		-57.6548	
29.3072	3800.531		-57.63911	
29.36131	3797.466		-57.62626	
29.41542	3794.361		-57.6166	
29.46953	3791.209		-57.61044	
29.52364	3788.011		-57.60807	
29.57774	3784.775		-57.60966	
29.63185	3781.511		-57.61531	
29.68596	3778.228		-57.62494	
29.74007	3774.927		-57.63835	
29.79418	3771.603		-57.65518	
29.84829	3768.261		-57.67493	
29.90239	3764.918		-57.69698	
29.9565	3761.595		-57.72062	
30.01061	3758.305		-57.74514	
30.06472	3755.06		-57.7698	
30.11883	3751.869		-57.79391	
30.17293	3748.734		-57.81676	
30.22704	3745.646		-57.83774	
30.28115	3742.583		-57.85627	
30.33526	3739.525		-57.87185	
30.38937	3736.455		-57.88407	
30.44348	3733.362		-57.89262	
30.49758	3730.237		-57.89729	
30.55169	3727.074		-57.89791	
30.6058	3723.875		-57.89441	
30.65991	3720.645		-57.88675	
30.71402	3717.399		-57.87494	
30.76813	3714.153		-57.85903	
30.82223	3710.921		-57.8391	
30.87634	3707.707		-57.81525	
30.93045	3704.509		-57.78765	
30.98456	3701.326		-57.7565	
31.03867	3698.159		-57.72206	
31.09277	3695.008		-57.68461	
31.14688	3691.865		-57.64443	
31.20099	3688.724		-57.60183	
31.2551	3685.579		-57.55722	
31.30921	3682.427		-57.511	
31.36332	3679.261		-57.46365	
31.41742	3676.072		-57.41566	
31.47153	3672.854		-57.36759	
31.52564	3669.61		-57.32001	
31.57975	3666.349		-57.27355	
31.63386	3663.103		-57.22879	
31.68796	3659.901		-57.18625	
31.74207	3656.754		-57.14638	
31.79618	3653.662		-57.10949	
31.85029	3650.619		-57.07576	
31.9044	3647.615		-57.04525	
31.95851	3644.645		-57.01794	
32.01262	3641.696		-56.99374	
32.06672	3638.756		-56.97249	
32.12083	3635.814		-56.95407	
32.17494	3632.873		-56.93827	
32.22905	3629.94		-56.92491	
32.28315	3627.018		-56.91372	
32.33726	3624.108		-56.90443	
32.39137	3621.215		-56.89674	
32.44548	3618.336		-56.89041	
32.49959	3615.472		-56.88525	
32.5537	3612.615		-56.88111	
32.6078	3609.747		-56.87794	
32.66191	3606.849		-56.87566	
32.71602	3603.908		-56.87426	
32.77013	3600.926		-56.8737	
32.82424	3597.907		-56.87395	
32.87835	3594.863		-56.87496	
32.93245	3591.8		-56.87666	
32.98656	3588.724		-56.87896	
33.04067	3585.642		-56.88171	
33.09478	3582.564		-56.88473	
33.14889	3579.489		-56.88783	
33.203	3576.412		-56.89082	
33.2571	3573.33		-56.89351	
33.31121	3570.241		-56.89571	
33.36532	3567.144		-56.89721	
33.41943	3564.041		-56.89787	
33.47353	3560.924		-56.89755	
33.52765	3557.786		-56.89621	
33.58175	3554.625		-56.89385	
33.63586	3551.444		-56.89049	
33.68997	3548.245		-56.88614	
33.74408	3545.031		-56.8808	
33.79818	3541.811		-56.87442	
33.85229	3538.592		-56.86691	
33.9064	3535.387		-56.85813	
33.96051	3532.21		-56.84791	
34.01462	3529.061		-56.83606	
34.06873	3525.922		-56.82239	
34.12283	3522.78		-56.80671	
34.17694	3519.625		-56.78882	
34.23105	3516.455		-56.7685	
34.28516	3513.267		-56.74547	
34.33927	3510.064		-56.71948	
34.39338	3506.852		-56.69025	
34.44748	3503.646		-56.6576	
34.50159	3500.46		-56.62139	
34.5557	3497.302		-56.58155	
34.60981	3494.162		-56.5381	
34.66392	3491.03		-56.4911	
34.71803	3487.899		-56.44068	
34.77213	3484.767		-56.38702	
34.82624	3481.643		-56.33035	
34.88035	3478.526		-56.27095	
34.93446	3475.415		-56.20912	
34.98856	3472.31		-56.1452	
35.04268	3469.22		-56.07949	
35.09678	3466.156		-56.01229	
35.15089	3463.126		-55.94389	
35.205	3460.138		-55.87455	
35.25911	3457.19		-55.80454	
35.31321	3454.275		-55.73413	
35.36732	3451.391		-55.66363	
35.42143	3448.528		-55.5934	
35.47554	3445.673		-55.52382	
35.52965	3442.817		-55.45532	
35.58376	3439.959		-55.38832	
35.63786	3437.103		-55.32322	
35.69197	3434.241		-55.2604	
35.74608	3431.361		-55.20014	
35.80019	3428.452		-55.14268	
35.8543	3425.517		-55.08823	
35.90841	3422.568		-55.0369	
35.96251	3419.619		-54.9888	
36.01662	3416.681		-54.94395	
36.07073	3413.759		-54.90232	
36.12484	3410.848		-54.86383	
36.17894	3407.945		-54.82831	
36.23306	3405.052		-54.79557	
36.28716	3402.165		-54.76531	
36.34127	3399.278		-54.73718	
36.39538	3396.387		-54.71077	
36.44949	3393.491		-54.68569	
36.50359	3390.59		-54.66154	
36.5577	3387.681		-54.63795	
36.61181	3384.761		-54.61456	
36.66592	3381.821		-54.59105	
36.72003	3378.857		-54.56713	
36.77414	3375.88		-54.54261	
36.82824	3372.903		-54.51736	
36.88235	3369.939		-54.49131	
36.93646	3367.002		-54.46447	
36.99057	3364.094		-54.43685	
37.04468	3361.212		-54.40845	
37.09879	3358.344		-54.37928	
37.15289	3355.483		-54.34929	
37.207	3352.625		-54.31838	
37.26111	3349.763		-54.2865	
37.31522	3346.888		-54.25357	
37.36933	3343.989		-54.2196	
37.42344	3341.051		-54.18462	
37.47754	3338.062		-54.14873	
37.53165	3335.025		-54.11204	
37.58576	3331.953		-54.07471	
37.63987	3328.86		-54.03692	
37.69397	3325.753		-53.99887	
37.74809	3322.638		-53.96073	
37.80219	3319.528		-53.92267	
37.8563	3316.428		-53.88487	
37.91041	3313.343		-53.84747	
37.96452	3310.262		-53.81061	
38.01862	3307.177		-53.77434	
38.07273	3304.083		-53.73867	
38.12684	3300.979		-53.70353	
38.18095	3297.872		-53.66881	
38.23506	3294.769		-53.63434	
38.28917	3291.68		-53.59991	
38.34327	3288.62		-53.5653	
38.39738	3285.6		-53.53032	
38.45149	3282.63		-53.49485	
38.5056	3279.719		-53.45879	
38.55971	3276.879		-53.42214	
38.61382	3274.109		-53.38491	
38.66792	3271.402		-53.34719	
38.72203	3268.743		-53.30915	
38.77614	3266.117		-53.27101	
38.83025	3263.508		-53.23309	
38.88436	3260.904		-53.19572	
38.93847	3258.296		-53.15926	
38.99257	3255.674		-53.12408	
39.04668	3253.03		-53.09051	
39.10079	3250.351		-53.05885	
39.1549	3247.633		-53.0293	
39.209	3244.883		-53.002	
39.26311	3242.108		-52.97705	
39.31722	3239.32		-52.9545	
39.37133	3236.526		-52.93439	
39.42544	3233.725		-52.91672	
39.47955	3230.916		-52.90147	
39.53365	3228.095		-52.88862	
39.58776	3225.261		-52.87811	
39.64187	3222.408		-52.86986	
39.69598	3219.532		-52.86379	
39.75009	3216.632		-52.8598	
39.8042	3213.719		-52.85777	
39.8583	3210.807		-52.85755	
39.91241	3207.902		-52.85894	
39.96652	3205.003		-52.86169	
40.02063	3202.106		-52.86547	
40.07474	3199.209		-52.86993	
40.12885	3196.309		-52.87469	
40.18295	3193.411		-52.87931	
40.23706	3190.526		-52.88331	
40.29117	3187.666		-52.88617	
40.34528	3184.834		-52.88739	
40.39939	3182.027		-52.88651	
40.4535	3179.24		-52.88311	
40.5076	3176.47		-52.87683	
40.56171	3173.712		-52.86738	
40.61582	3170.962		-52.85454	
40.66993	3168.213		-52.83823	
40.72403	3165.453		-52.81849	
40.77814	3162.672		-52.79549	
40.83225	3159.861		-52.76948	
40.88636	3157.014		-52.74079	
40.94047	3154.123		-52.70981	
40.99458	3151.181		-52.67697	
41.04868	3148.183		-52.64272	
41.10279	3145.134		-52.60753	
41.1569	3142.045		-52.57181	
41.21101	3138.927		-52.53592	
41.26512	3135.788		-52.50015	
41.31923	3132.64		-52.46474	
41.37333	3129.496		-52.42984	
41.42744	3126.368		-52.39555	
41.48155	3123.262		-52.36191	
41.53566	3120.18		-52.32888	
41.58977	3117.123		-52.29634	
41.64388	3114.092		-52.26416	
41.69798	3111.092		-52.23214	
41.75209	3108.13		-52.20005	
41.8062	3105.203		-52.16766	
41.86031	3102.311		-52.1347	
41.91442	3099.455		-52.10091	
41.96852	3096.643		-52.06601	
42.02263	3093.879		-52.02974	
42.07674	3091.161		-51.9919	
42.13085	3088.484		-51.9523	
42.18496	3085.844		-51.9108	
42.23906	3083.24		-51.86728	
42.29317	3080.672		-51.82165	
42.34728	3078.144		-51.77393	
42.40139	3075.652		-51.72414	
42.4555	3073.188		-51.67236	
42.50961	3070.739		-51.61872	
42.56371	3068.295		-51.56343	
42.61782	3065.843		-51.50676	
42.67193	3063.367		-51.44906	
42.72604	3060.858		-51.39076	
42.78015	3058.315		-51.33232	
42.83426	3055.736		-51.27425	
42.88836	3053.116		-51.21712	
42.94247	3050.449		-51.16149	
42.99658	3047.73		-51.10797	
43.05069	3044.951		-51.05719	
43.1048	3042.112		-51.00978	
43.15891	3039.219		-50.96638	
43.21301	3036.28		-50.92751	
43.26712	3033.308		-50.89364	
43.32123	3030.319		-50.86508	
43.37534	3027.33		-50.84199	
43.42945	3024.36		-50.82441	
43.48355	3021.417		-50.8122	
43.53766	3018.496		-50.80507	
43.59177	3015.587		-50.80262	
43.64588	3012.691		-50.8043	
43.69999	3009.817		-50.80952	
43.75409	3006.974		-50.81763	
43.8082	3004.164		-50.82791	
43.86231	3001.391		-50.83966	
43.91642	2998.651		-50.85215	
43.97053	2995.937		-50.86467	
44.02464	2993.243		-50.87653	
44.07874	2990.564		-50.88706	
44.13285	2987.898		-50.8957	
44.18696	2985.242		-50.90192	
44.24107	2982.599		-50.90532	
44.29518	2979.966		-50.90561	
44.34929	2977.341		-50.90259	
44.40339	2974.721		-50.89614	
44.4575	2972.104		-50.88625	
44.51161	2969.493		-50.87294	
44.56572	2966.885		-50.85632	
44.61983	2964.267		-50.83654	
44.67393	2961.621		-50.8138	
44.72804	2958.942		-50.78831	
44.78215	2956.223		-50.76035	
44.83626	2953.458		-50.73018	
44.89037	2950.64		-50.6981	
44.94448	2947.771		-50.66444	
44.99858	2944.851		-50.62957	
45.05269	2941.883		-50.59383	
45.1068	2938.877		-50.5576	
45.16091	2935.845		-50.52119	
45.21502	2932.803		-50.48484	
45.26912	2929.768		-50.44874	
45.32323	2926.761		-50.41298	
45.37734	2923.805		-50.37756	
45.43145	2920.92		-50.34237	
45.48556	2918.113		-50.30716	
45.53967	2915.376		-50.27163	
45.59377	2912.693		-50.2354	
45.64788	2910.038		-50.19806	
45.70199	2907.396		-50.15916	
45.7561	2904.76		-50.11827	
45.81021	2902.13		-50.07497	
45.86432	2899.516		-50.02887	
45.91842	2896.929		-49.97965	
45.97253	2894.378		-49.92704	
46.02664	2891.865		-49.87084	
46.08075	2889.383		-49.81088	
46.13486	2886.922		-49.74711	
46.18896	2884.466		-49.67957	
46.24307	2882.006		-49.60843	
46.29718	2879.531		-49.534	
46.35129	2877.03		-49.45667	
46.4054	2874.487		-49.3769	
46.45951	2871.896		-49.2952	
46.51361	2869.254		-49.21216	
46.56772	2866.565		-49.12836	
46.62183	2863.833		-49.04441	
46.67594	2861.064		-48.96095	
46.73005	2858.261		-48.8786	
46.78415	2855.429		-48.79799	
46.83826	2852.578		-48.71975	
46.89237	2849.719		-48.64447	
46.94648	2846.868		-48.57271	
47.00059	2844.034		-48.50492	
47.0547	2841.224		-48.44148	
47.1088	2838.44		-48.38264	
47.16291	2835.678		-48.32854	
47.21702	2832.934		-48.27917	
47.27113	2830.204		-48.23444	
47.32524	2827.486		-48.19414	
47.37934	2824.783		-48.15796	
47.43345	2822.101		-48.12543	
47.48756	2819.447		-48.09607	
47.54167	2816.831		-48.06926	
47.59578	2814.261		-48.0444	
47.64989	2811.744		-48.02085	
47.70399	2809.281		-47.99803	
47.7581	2806.866		-47.97539	
47.81221	2804.49		-47.95248	
47.86632	2802.139		-47.92895	
47.92043	2799.8		-47.90456	
47.97453	2797.47		-47.87911	
48.02864	2795.144		-47.85251	
48.08275	2792.817		-47.82468	
48.13686	2790.485		-47.79565	
48.19097	2788.138		-47.76548	
48.24508	2785.768		-47.73433	
48.29918	2783.369		-47.70247	
48.35329	2780.935		-47.67023	
48.4074	2778.46		-47.63803	
48.46151	2775.94		-47.60632	
48.51562	2773.38		-47.57557	
48.56973	2770.788		-47.54626	
48.62383	2768.176		-47.51887	
48.67794	2765.555		-47.49385	
48.73205	2762.926		-47.47163	
48.78616	2760.287		-47.45263	
48.84027	2757.631		-47.43719	
48.89437	2754.953		-47.42561	
48.94848	2752.251		-47.41809	
49.00259	2749.526		-47.41473	
49.0567	2746.774		-47.41556	
49.11081	2743.998		-47.4205	
49.16492	2741.203		-47.42936	
49.21902	2738.404		-47.44186	
49.27313	2735.613		-47.45762	
49.32724	2732.849		-47.47614	
49.38135	2730.132		-47.49685	
49.43546	2727.473		-47.5191	
49.48956	2724.875		-47.54224	
49.54367	2722.336		-47.56555	
49.59778	2719.849		-47.58835	
49.65189	2717.411		-47.60997	
49.706	2715.01		-47.6298	
49.76011	2712.636		-47.64726	
49.81421	2710.276		-47.66187	
49.86832	2707.917		-47.67327	
49.92243	2705.55		-47.68114	
49.97654	2703.166		-47.68526	
50.03065	2700.757		-47.68549	
50.08475	2698.315		-47.68175	
50.13886	2695.834		-47.67402	
50.19297	2693.315		-47.66236	
50.24708	2690.76		-47.64693	
50.30119	2688.176		-47.62797	
50.3553	2685.563		-47.60577	
50.4094	2682.918		-47.58068	
50.46351	2680.245		-47.55306	
50.51762	2677.545		-47.5233	
50.57173	2674.823		-47.49178	
50.62584	2672.088		-47.45882	
50.67995	2669.344		-47.42475	
50.73405	2666.602		-47.3898	
50.78816	2663.865		-47.35419	
50.84227	2661.129		-47.31807	
50.89638	2658.394		-47.28156	
50.95049	2655.667		-47.24468	
51.00459	2652.954		-47.20745	
51.0587	2650.261		-47.16985	
51.11281	2647.594		-47.13187	
51.16692	2644.961		-47.09349	
51.22103	2642.364		-47.05464	
51.27514	2639.797		-47.01522	
51.32924	2637.26		-46.97507	
51.38335	2634.749		-46.93404	
51.43746	2632.264		-46.89196	
51.49157	2629.808		-46.84867	
51.54568	2627.386		-46.804	
51.59978	2624.997		-46.75774	
51.65389	2622.633		-46.70966	
51.708	2620.282		-46.65953	
51.76211	2617.928		-46.60712	
51.81622	2615.56		-46.55225	
51.87033	2613.169		-46.49482	
51.92443	2610.747		-46.43478	
51.97854	2608.286		-46.37216	
52.03265	2605.788		-46.30707	
52.08676	2603.258		-46.2397	
52.14087	2600.702		-46.17034	
52.19498	2598.131		-46.09934	
52.24908	2595.56		-46.02711	
52.30319	2592.998		-45.95405	
52.3573	2590.444		-45.88058	
52.41141	2587.893		-45.80713	
52.46552	2585.344		-45.73409	
52.51962	2582.796		-45.66183	
52.57373	2580.251		-45.59066	
52.62784	2577.709		-45.52081	
52.68195	2575.174		-45.45243	
52.73606	2572.652		-45.38559	
52.79016	2570.145		-45.32027	
52.84427	2567.651		-45.25643	
52.89838	2565.17		-45.19398	
52.95249	2562.703		-45.13281	
53.0066	2560.247		-45.07285	
53.06071	2557.802		-45.01408	
53.11481	2555.375		-44.95649	
53.16892	2552.972		-44.90015	
53.22303	2550.599		-44.84514	
53.27714	2548.259		-44.79156	
53.33125	2545.954		-44.73951	
53.38536	2543.673		-44.6891	
53.43946	2541.403		-44.64042	
53.49357	2539.138		-44.59352	
53.54768	2536.87		-44.54847	
53.60179	2534.585		-44.50526	
53.6559	2532.269		-44.46386	
53.71001	2529.915		-44.42416	
53.76411	2527.531		-44.38606	
53.81822	2525.128		-44.34942	
53.87233	2522.719		-44.31413	
53.92644	2520.303		-44.28007	
53.98055	2517.88		-44.24717	
54.03465	2515.449		-44.21537	
54.08876	2513.015		-44.18459	
54.14287	2510.584		-44.15478	
54.19698	2508.167		-44.12585	
54.25109	2505.775		-44.09773	
54.30519	2503.406		-44.07032	
54.3593	2501.048		-44.04351	
54.41341	2498.688		-44.01721	
54.46752	2496.316		-43.99126	
54.52163	2493.925		-43.96544	
54.57574	2491.512		-43.93951	
54.62984	2489.079		-43.91315	
54.68395	2486.632		-43.88599	
54.73806	2484.181		-43.85764	
54.79217	2481.738		-43.82772	
54.84628	2479.317		-43.79584	
54.90039	2476.933		-43.76165	
54.95449	2474.594		-43.72488	
55.0086	2472.302		-43.68533	
55.06271	2470.056		-43.6429	
55.11682	2467.848		-43.59759	
55.17093	2465.66		-43.5495	
55.22504	2463.474		-43.49883	
55.27914	2461.275		-43.44584	
55.33325	2459.054		-43.39088	
55.38736	2456.799		-43.33436	
55.44147	2454.5		-43.27674	
55.49557	2452.158		-43.21853	
55.54968	2449.78		-43.16026	
55.60379	2447.367		-43.10241	
55.6579	2444.918		-43.04548	
55.71201	2442.438		-42.98991	
55.76612	2439.936		-42.93612	
55.82022	2437.425		-42.88452	
55.87433	2434.917		-42.83545	
55.92844	2432.422		-42.78924	
55.98255	2429.943		-42.74611	
56.03666	2427.473		-42.7062	
56.09077	2425		-42.66956	
56.14487	2422.521		-42.63611	
56.19898	2420.046		-42.60566	
56.25309	2417.583		-42.57794	
56.3072	2415.135		-42.5526	
56.36131	2412.702		-42.52926	
56.41542	2410.283		-42.50749	
56.46952	2407.887		-42.48679	
56.52363	2405.527		-42.46662	
56.57774	2403.211		-42.4464	
56.63185	2400.951		-42.42556	
56.68596	2398.756		-42.4035	
56.74007	2396.624		-42.37965	
56.79417	2394.552		-42.35349	
56.84828	2392.527		-42.3245	
56.90239	2390.538		-42.29225	
56.9565	2388.571		-42.2564	
57.0106	2386.613		-42.21671	
57.06471	2384.655		-42.17303	
57.11882	2382.691		-42.12532	
57.17293	2380.719		-42.07364	
57.22704	2378.731		-42.01813	
57.28115	2376.719		-41.95908	
57.33525	2374.678		-41.89688	
57.38936	2372.599		-41.83204	
57.44347	2370.466		-41.76516	
57.49758	2368.269		-41.6969	
57.55169	2366.005		-41.62796	
57.6058	2363.679		-41.55907	
57.6599	2361.302		-41.49096	
57.71401	2358.885		-41.42441	
57.76812	2356.438		-41.36016	
57.82223	2353.967		-41.29894	
57.87634	2351.477		-41.24142	
57.93045	2348.975		-41.18815	
57.98455	2346.473		-41.1396	
58.03866	2343.978		-41.09604	
58.09277	2341.498		-41.05761	
58.14688	2339.043		-41.02427	
58.20098	2336.619		-40.99581	
58.25509	2334.23		-40.97189	
58.3092	2331.875		-40.95204	
58.36331	2329.546		-40.93571	
58.41742	2327.232		-40.92223	
58.47153	2324.924		-40.91086	
58.52563	2322.616		-40.90081	
58.57974	2320.315		-40.89123	
58.63385	2318.027		-40.88128	
58.68796	2315.769		-40.87011	
58.74207	2313.56		-40.85692	
58.79618	2311.407		-40.841	
58.85028	2309.313		-40.82167	
58.90439	2307.275		-40.79838	
58.9585	2305.283		-40.77061	
59.01261	2303.32		-40.73797	
59.06672	2301.37		-40.70017	
59.12083	2299.421		-40.65702	
59.17493	2297.462		-40.60844	
59.22904	2295.485		-40.55447	
59.28315	2293.491		-40.49524	
59.33726	2291.482		-40.43105	
59.39137	2289.457		-40.36225	
59.44548	2287.404		-40.28935	
59.49958	2285.311		-40.21293	
59.55369	2283.173		-40.13368	
59.6078	2280.99		-40.05234	
59.66191	2278.772		-39.96972	
59.71601	2276.53		-39.88668	
59.77012	2274.279		-39.80409	
59.82423	2272.03		-39.72282	
59.87834	2269.784		-39.64365	
59.93245	2267.534		-39.56729	
59.98656	2265.271		-39.49427	
60.04066	2262.991		-39.42502	
60.09477	2260.698		-39.3598	
60.14888	2258.397		-39.29873	
60.20299	2256.091		-39.24178	
60.2571	2253.784		-39.18884	
60.31121	2251.479		-39.13958	
60.36531	2249.181		-39.09363	
60.41942	2246.899		-39.05045	
60.47353	2244.644		-39.00946	
60.52764	2242.427		-38.96998	
60.58175	2240.254		-38.93131	
60.63586	2238.126		-38.89273	
60.68996	2236.049		-38.85352	
60.74407	2234.025		-38.813	
60.79818	2232.055		-38.7705	
60.85229	2230.134		-38.72537	
60.90639	2228.253		-38.67701	
60.96051	2226.397		-38.62481	
61.01461	2224.554		-38.56828	
61.06872	2222.708		-38.50694	
61.12283	2220.846		-38.4404	
61.17694	2218.956		-38.36837	
61.23104	2217.028		-38.29063	
61.28515	2215.062		-38.20703	
61.33926	2213.058		-38.11747	
61.39337	2211.018		-38.02193	
61.44748	2208.947		-37.92044	
61.50159	2206.849		-37.81306	
61.55569	2204.732		-37.69992	
61.6098	2202.604		-37.58125	
61.66391	2200.475		-37.45733	
61.71802	2198.348		-37.32851	
61.77213	2196.227		-37.19517	
61.82624	2194.111		-37.05768	
61.88034	2191.998		-36.91637	
61.93445	2189.882		-36.77148	
61.98856	2187.758		-36.62321	
62.04267	2185.622		-36.47165	
62.09678	2183.475		-36.31681	
62.15089	2181.323		-36.15868	
62.20499	2179.177		-35.99714	
62.2591	2177.042		-35.832	
62.31321	2174.922		-35.66296	
62.36732	2172.822		-35.48963	
62.42142	2170.745		-35.31154	
62.47554	2168.699		-35.12811	
62.52964	2166.689		-34.93878	
62.58375	2164.72		-34.74292	
62.63786	2162.794		-34.53989	
62.69197	2160.914		-34.32907	
62.74607	2159.077		-34.10981	
62.80018	2157.277		-33.8814	
62.85429	2155.507		-33.64313	
62.9084	2153.753		-33.39432	
62.96251	2152		-33.13424	
63.01662	2150.23		-32.86224	
63.07072	2148.441		-32.57769	
63.12483	2146.633		-32.28004	
63.17894	2144.815		-31.96882	
63.23305	2142.997		-31.64357	
63.28716	2141.191		-31.30394	
63.34127	2139.403		-30.94955	
63.39537	2137.639		-30.58009	
63.44948	2135.901		-30.19524	
63.50359	2134.185		-29.79475	
63.5577	2132.489		-29.37839	
63.61181	2130.813		-28.94596	
63.66592	2129.157		-28.49738	
63.72002	2127.516		-28.0325	
63.77413	2125.889		-27.55117	
63.82824	2124.277		-27.05319	
63.88235	2122.68		-26.53833	
63.93645	2121.103		-26.00631	
63.99057	2119.549		-25.45682	
64.04467	2118.018		-24.88961	
64.09878	2116.511		-24.30424	
64.15289	2115.027		-23.70036	
64.207	2113.565		-23.07741	
64.26111	2112.126		-22.43505	
64.31522	2110.717		-21.77258	
64.36932	2109.345		-21.08926	
64.42343	2108.017		-20.38432	
64.47754	2106.736		-19.65691	
64.53165	2105.497		-18.90609	
64.58575	2104.294		-18.13091	
64.63986	2103.122		-17.33033	
64.69397	2101.978		-16.50334	
64.74808	2100.863		-15.64883	
64.80219	2099.785		-14.76567	
64.85629	2098.755		-13.85273	
64.9104	2097.78		-12.90885	
64.96452	2096.863		-11.93277	
65.01862	2096.002		-10.92368	
65.07273	2095.192		-9.880413	
65.12684	2094.428		-8.801932	
65.18095	2093.702		-7.687272	
65.23505	2093.011		-6.535489	
65.28916	2092.363		-5.345674	
65.34327	2091.766		-4.116946	
65.39738	2091.228		-2.848434	
65.45148	2090.76		-1.53934	
65.50559	2090.371		-0.1888146	
65.5597	2090.068		1.20397	
65.61381	2089.852		2.639836	
65.66792	2089.721		4.119636	
65.72203	2089.672		5.644498	
65.77614	2089.703		7.214962	
65.83025	2089.808		8.832225	
65.88435	2089.98		10.49738	
65.93846	2090.213		12.21148	
65.99257	2090.506		13.97562	
66.04668	2090.866		15.79096	
66.10078	2091.298		17.65866	
66.15489	2091.802		19.57994	
66.209	2092.375		21.55597	
66.26311	2093.028		23.58807	
66.31721	2093.772		25.67753	
66.37132	2094.62		27.82565	
66.42543	2095.58		30.03375	
66.47955	2096.658		32.30345	
66.53365	2097.86		34.63544	
66.58776	2099.197		37.03136	
66.64187	2100.675		39.49271	
66.69598	2102.303		42.02078	
66.75008	2104.081		44.61703	
66.80419	2106.009		47.28281	
66.8583	2108.085		50.01963	
66.91241	2110.307		52.82881	
66.96651	2112.675		55.71146	
67.02062	2115.191		58.66883	
67.07473	2117.866		61.70202	
67.12884	2120.704		64.81201	
67.18295	2123.706		67.99969	
67.23706	2126.875		71.2663	
67.29117	2130.207		74.61157	
67.34528	2133.699		78.03647	
67.39938	2137.356		81.54141	
67.45349	2141.188		85.12672	
67.5076	2145.202		88.7926	
67.56171	2149.406		92.53914	
67.61581	2153.8		96.3666	
67.66992	2158.385		100.275	
67.72403	2163.165		104.2643	
67.77814	2168.142		108.3344	
67.83224	2173.317		112.4854	
67.88635	2178.694		116.7169	
67.94046	2184.275		121.0287	
67.99458	2190.068		125.4213	
68.04868	2196.081		129.893	
68.10279	2202.32		134.444	
68.1569	2208.791		139.0738	
68.21101	2215.505		143.7821	
68.26511	2222.487		148.5683	
68.31922	2229.76		153.4317	
68.37333	2237.343		158.3718	
68.42744	2245.246		163.388	
68.48154	2253.478		168.4791	
68.53565	2262.04		173.6445	
68.58976	2270.928		178.8833	
68.64387	2280.137		184.1944	
68.69798	2289.66		189.577	
68.75209	2299.502		195.0308	
68.8062	2309.666		200.5531	
68.86031	2320.158		206.1435	
68.91441	2330.978		211.8007	
68.96852	2342.126		217.5233	
69.02263	2353.604		223.3095	
69.07674	2365.417		229.1577	
69.13084	2377.576		235.0658	
69.18495	2390.095		241.0317	
69.23906	2402.981		247.0526	
69.29317	2416.24		253.1256	
69.34727	2429.872		259.2473	
69.40138	2443.875		265.4141	
69.45549	2458.245		271.6217	
69.50961	2472.971		277.8666	
69.56371	2488.039		284.1422	
69.61782	2503.441		290.4438	
69.67193	2519.179		296.7656	
69.72604	2535.251		303.1013	
69.78014	2551.661		309.444	
69.83425	2568.418		315.7863	
69.88836	2585.532		322.1202	
69.94247	2603.019		328.4371	
69.99657	2620.892		334.7281	
70.05068	2639.163		340.9834	
70.10479	2657.838		347.1932	
70.1589	2676.921		353.347	
70.21301	2696.418		359.4337	
70.26712	2716.331		365.443	
70.32123	2736.646		371.3613	
70.37534	2757.353		377.1776	
70.42944	2778.44		382.8795	
70.48355	2799.902		388.4543	
70.53766	2821.736		393.8896	
70.59177	2843.944		399.1725	
70.64587	2866.53		404.29	
70.69998	2889.503		409.2292	
70.75409	2912.871		413.9775	
70.8082	2936.646		418.5222	
70.8623	2960.833		422.8506	
70.91641	2985.428		426.9507	
70.97052	3010.418		430.8108	
71.02464	3035.794		434.4199	
71.07874	3061.541		437.7664	
71.13285	3087.655		440.8404	
71.18696	3114.131		443.6324	
71.24107	3140.96		446.1336	
71.29517	3168.132		448.3355	
71.34928	3195.636		450.2311	
71.40339	3223.464		451.8132	
71.4575	3251.609		453.0761	
71.5116	3280.061		454.0146	
71.56571	3308.805		454.6253	
71.61982	3337.825		454.9047	
71.67393	3367.09		454.8506	
71.72803	3396.566		454.4616	
71.78215	3426.214		453.7372	
71.83626	3455.981		452.6781	
71.89037	3485.826		451.2856	
71.94447	3515.705		449.5622	
71.99858	3545.571		447.5108	
72.05269	3575.379		445.1356	
72.1068	3605.081		442.4419	
72.1609	3634.627		439.4343	
72.21501	3663.965		436.1196	
72.26912	3693.044		432.5045	
72.32323	3721.811		428.5973	
72.37733	3750.216		424.4058	
72.43144	3778.209		419.9391	
72.48555	3805.74		415.2063	
72.53967	3832.76		410.2167	
72.59377	3859.217		404.982	
72.64788	3885.07		399.5122	
72.70199	3910.279		393.8183	
72.7561	3934.809		387.9117	
72.8102	3958.638		381.8039	
72.86431	3981.75		375.5074	
72.91842	4004.13		369.0338	
72.97253	4025.766		362.396	
73.02663	4046.65		355.6067	
73.08074	4066.772		348.6794	
73.13485	4086.12		341.627	
73.18896	4104.686		334.4631	
73.24306	4122.46		327.2013	
73.29718	4139.443		319.8543	
73.35129	4155.632		312.4381	
73.4054	4171.043		304.9658	
73.4595	4185.698		297.4514	
73.51361	4199.629		289.9092	
73.56772	4212.87		282.3534	
73.62183	4225.45		274.7979	
73.67593	4237.396		267.257	
73.73004	4248.732		259.7444	
73.78415	4259.481		252.2741	
73.83826	4269.667		244.8592	
73.89236	4279.315		237.513	
73.94647	4288.449		230.2483	
74.00058	4297.095		223.0773	
74.05469	4305.28		216.012	
74.1088	4313.044		209.0626	
74.16291	4320.436		202.2418	
74.21702	4327.511		195.5586	
74.27113	4334.327		189.0222	
74.32523	4340.926		182.6413	
74.37934	4347.336		176.4233	
74.43345	4353.572		170.3756	
74.48756	4359.646		164.504	
74.54166	4365.576		158.8138	
74.59577	4371.375		153.3085	
74.64988	4377.05		147.9916	
74.70399	4382.604		142.8651	
74.75809	4388.031		137.9304	
74.8122	4393.329		133.1877	
74.86632	4398.492		128.6358	
74.92043	4403.521		124.2742	
74.97453	4408.423		120.1	
75.02864	4413.213		116.1098	
75.08275	4417.908		112.2995	
75.13686	4422.521		108.664	
75.19096	4427.069		105.1981	
75.24507	4431.555		101.8954	
75.29918	4435.975		98.74954	
75.35329	4440.319		95.75311	
75.40739	4444.578		92.8989	
75.4615	4448.746		90.17924	
75.51561	4452.818		87.5863	
75.56972	4456.791		85.11201	
75.62383	4460.659		82.7479	
75.67794	4464.422		80.48644	
75.73205	4468.093		78.31919	
75.78616	4471.684		76.23817	
75.84026	4475.214		74.23557	
75.89437	4478.708		72.30376	
75.94848	4482.193		70.43549	
76.00259	4485.681		68.62363	
76.05669	4489.172		66.86147	
76.1108	4492.65		65.14257	
76.16491	4496.097		63.46107	
76.21902	4499.506		61.8116	
76.27312	4502.881		60.18937	
76.32723	4506.22		58.59013	
76.38135	4509.513		57.01004	
76.43546	4512.743		55.44646	
76.48956	4515.897		53.89663	
76.54367	4518.974		52.35855	
76.59778	4521.976		50.83069	
76.65189	4524.9		49.31203	
76.70599	4527.745		47.80199	
76.7601	4530.512		46.30037	
76.81421	4533.211		44.80732	
76.86832	4535.857		43.32341	
76.92242	4538.458		41.84949	
76.97653	4541.014		40.38671	
77.03064	4543.515		38.93645	
77.08475	4545.947		37.50031	
77.13886	4548.3		36.07988	
77.19297	4550.564		34.67751	
77.24708	4552.725		33.29509	
77.30119	4554.764		31.93483	
77.35529	4556.662		30.59897	
77.4094	4558.415		29.28981	
77.46351	4560.026		28.00959	
77.51762	4561.506		26.76055	
77.57172	4562.862		25.54486	
77.62583	4564.101		24.36454	
77.67994	4565.229		23.2216	
77.73405	4566.26		22.11791	
77.78815	4567.192		21.05517	
77.84226	4568.022		20.03493	
77.89638	4568.748		19.05841	
77.95049	4569.365		18.127	
78.00459	4569.872		17.24149	
78.0587	4570.258		16.40262	
78.11281	4570.504		15.61102	
78.16692	4570.584		14.86725	
78.22102	4570.487		14.17174	
78.27513	4570.223		13.52508	
78.32924	4569.814		12.92771	
78.38335	4569.286		12.37992	
78.43745	4568.657		11.88216	
78.49156	4567.948		11.43483	
78.54567	4567.183		11.03824	
78.59978	4566.38		10.6927	
78.65389	4565.557		10.39845	
78.708	4564.724		10.15579	
78.76211	4563.901		9.964875	
78.81622	4563.107		9.825792	
78.87032	4562.359		9.738561	
78.92443	4561.667		9.703111	
78.97854	4561.034		9.719199	
79.03265	4560.454		9.786694	
79.08675	4559.919		9.905214	
79.14086	4559.429		10.07416	
79.19497	4559.003		10.29302	
79.24908	4558.662		10.56114	
79.30318	4558.428		10.87772	
79.35729	4558.318		11.24185	
79.41141	4558.356		11.65253	
79.46552	4558.559		12.10847	
79.51962	4558.93		12.60842	
79.57373	4559.469		13.15091	
79.62784	4560.167		13.73434	
79.68195	4561.013		14.35688	
79.73605	4561.99		15.01646	
79.79016	4563.08		15.71086	
79.84427	4564.264		16.43757	
79.89838	4565.53		17.19385	
79.95248	4566.867		17.9768	
80.00659	4568.27		18.78334	
80.0607	4569.737		19.61023	
80.11481	4571.269		20.45411	
80.16892	4572.849		21.31167	
80.22303	4574.467		22.17913	
80.27714	4576.11		23.05305	
80.33125	4577.775		23.92984	
80.38535	4579.456		24.80598	
80.43946	4581.155		25.678	
80.49357	4582.869		26.54255	
80.54768	4584.597		27.39639	
80.60178	4586.344		28.23649	
80.65589	4588.11		29.06014	
80.71	4589.897		29.86477	
80.76411	4591.71		30.64806	
80.81821	4593.553		31.40787	
80.87232	4595.439		32.14225	
80.92644	4597.392		32.84959	
80.98055	4599.429		33.52815	
81.03465	4601.558		34.17673	
81.08876	4603.772		34.7942	
81.14287	4606.06		35.37964	
81.19698	4608.411		35.93226	
81.25108	4610.817		36.45141	
81.30519	4613.26		36.93644	
81.3593	4615.719		37.38683	
81.41341	4618.181		37.80222	
81.46751	4620.634		38.18225	
81.52162	4623.073		38.52667	
81.57573	4625.501		38.83532	
81.62984	4627.932		39.10809	
81.68395	4630.379		39.34494	
81.73806	4632.853		39.54575	
81.79217	4635.36		39.71049	
81.84628	4637.9		39.83907	
81.90038	4640.473		39.93137	
81.95449	4643.063		39.98721	
82.0086	4645.657		40.00636	
82.06271	4648.236		39.98843	
82.11681	4650.783		39.93307	
82.17092	4653.28		39.83981	
82.22503	4655.711		39.7082	
82.27914	4658.072		39.53766	
82.33324	4660.362		39.32761	
82.38735	4662.593		39.07747	
82.44147	4664.779		38.78663	
82.49557	4666.937		38.45468	
82.54968	4669.087		38.08118	
82.60379	4671.252		37.66586	
82.6579	4673.448		37.20856	
82.71201	4675.688		36.70934	
82.76611	4677.973		36.1684	
82.82022	4680.293		35.58604	
82.87433	4682.639		34.9628	
82.92844	4684.996		34.29933	
82.98254	4687.349		33.59655	
83.03665	4689.671		32.85542	
83.09076	4691.934		32.07704	
83.14487	4694.115		31.26258	
83.19898	4696.217		30.41308	
83.25309	4698.251		29.52993	
83.3072	4700.234		28.61413	
83.36131	4702.184		27.66673	
83.41541	4704.121		26.68876	
83.46952	4706.052		25.6812	
83.52363	4707.978		24.64503	
83.57774	4709.89		23.5811	
83.63184	4711.783		22.49037	
83.68595	4713.635		21.37366	
83.74006	4715.422		20.2319	
83.79417	4717.111		19.06585	
83.84827	4718.678		17.87631	
83.90238	4720.102		16.66403	
83.9565	4721.371		15.42954	
84.0106	4722.485		14.17389	
84.06471	4723.455		12.89753	
84.11882	4724.285		11.60107	
84.17293	4724.987		10.28505	
84.22704	4725.571		8.94996	
84.28114	4726.053		7.596279	
84.33525	4726.438		6.22439	
84.38936	4726.728		4.834724	
84.44347	4726.913		3.42768	
84.49757	4726.988		2.003729	
84.55168	4726.941		0.5633722	
84.60579	4726.767		-0.8927397	
84.6599	4726.459		-2.363793	
84.714	4726.029		-3.848771	
84.76812	4725.48		-5.346692	
84.82223	4724.82		-6.855766	
84.87634	4724.057		-8.374673	
84.93044	4723.208		-9.901704	
84.98455	4722.293		-11.435	
85.03866	4721.331		-12.9726	
85.09277	4720.334		-14.51248	
85.14687	4719.313		-16.05259	
85.20098	4718.27		-17.5909	
85.25509	4717.199		-19.12545	
85.3092	4716.083		-20.65429	
85.3633	4714.899		-22.17555	
85.41741	4713.625		-23.68746	
85.47152	4712.248		-25.18839	
85.52563	4710.769		-26.677	
85.57974	4709.195		-28.15142	
85.63385	4707.539		-29.61052	
85.68796	4705.805		-31.05302	
85.74207	4703.994		-32.47778	
85.79617	4702.112		-33.88379	
85.85028	4700.162		-35.27011	
85.90439	4698.146		-36.63597	
85.9585	4696.065		-37.98069	
86.0126	4693.915		-39.3038	
86.06671	4691.689		-40.60488	
86.12082	4689.381		-41.88364	
86.17493	4686.977		-43.13993	
86.22903	4684.469		-44.37369	
86.28315	4681.853		-45.58507	
86.33726	4679.135		-46.77382	
86.39137	4676.32		-47.94029	
86.44547	4673.408		-49.08476	
86.49958	4670.4		-50.20757	
86.55369	4667.295		-51.30907	
86.6078	4664.1		-52.38957	
86.6619	4660.823		-53.44939	
86.71601	4657.479		-54.48876	
86.77012	4654.079		-55.50791	
86.82423	4650.633		-56.50698	
86.87833	4647.14		-57.48604	
86.93244	4643.594		-58.44513	
86.98655	4639.987		-59.3842	
87.04066	4636.313		-60.3033	
87.09477	4632.574		-61.20201	
87.14888	4628.789		-62.08031	
87.20299	4624.975		-62.93797	
87.2571	4621.159		-63.7748	
87.3112	4617.351		-64.59054	
87.36531	4613.547		-65.38497	
87.41942	4609.74		-66.15779	
87.47353	4605.931		-66.90873	
87.52763	4602.115		-67.63761	
87.58174	4598.289		-68.34418	
87.63585	4594.442		-69.02826	
87.68996	4590.564		-69.68972	
87.74406	4586.64		-70.32851	
87.79818	4582.666		-70.94475	
87.85229	4578.644		-71.5384	
87.90639	4574.581		-72.10976	
87.9605	4570.478		-72.65914	
88.01461	4566.339		-73.1869	
88.06872	4562.172		-73.69347	
88.12283	4557.991		-74.17942	
88.17693	4553.806		-74.64527	
88.23104	4549.624		-75.09168	
88.28515	4545.44		-75.51939	
88.33926	4541.252		-75.92912	
88.39336	4537.045		-76.32167	
88.44747	4532.804		-76.69788	
88.50158	4528.516		-77.0586	
88.55569	4524.176		-77.40473	
88.6098	4519.78		-77.73701	
88.66391	4515.332		-78.05628	
88.71802	4510.846		-78.36333	
88.77213	4506.344		-78.65892	
88.82623	4501.851		-78.9438	
88.88034	4497.392		-79.21875	
88.93445	4492.974		-79.48454	
88.98856	4488.598		-79.74191	
89.04266	4484.253		-79.99161	
89.09677	4479.934		-80.23432	
89.15088	4475.626		-80.47073	
89.20499	4471.323		-80.70146	
89.25909	4467.011		-80.92715	
89.31321	4462.672		-81.14838	
89.36732	4458.292		-81.36567	
89.42142	4453.861		-81.5795	
89.47553	4449.375		-81.79036	
89.52964	4444.839		-81.9987	
89.58375	4440.27		-82.20497	
89.63786	4435.683		-82.40965	
89.69196	4431.092		-82.61323	
89.74607	4426.51		-82.81619	
89.80018	4421.949		-83.01901	
89.85429	4417.421		-83.22209	
89.90839	4412.935		-83.42575	
89.9625	4408.482		-83.63023	
90.01661	4404.045		-83.83568	
90.07072	4399.602		-84.04222	
90.12483	4395.137		-84.24984	
90.17894	4390.646		-84.45856	
90.23305	4386.129		-84.66833	
90.28716	4381.587		-84.87907	
90.34126	4377.023		-85.09068	
90.39537	4372.443		-85.30304	
90.44948	4367.855		-85.51601	
90.50359	4363.273		-85.7294	
90.55769	4358.705		-85.943	
90.6118	4354.154		-86.15656	
90.66591	4349.614		-86.3698	
90.72002	4345.071		-86.58244	
90.77412	4340.508		-86.79426	
90.82824	4335.913		-87.00498	
90.88235	4331.284		-87.21426	
90.93645	4326.616		-87.4218	
90.99056	4321.909		-87.62723	
91.04467	4317.167		-87.83016	
91.09878	4312.395		-88.03016	
91.15289	4307.604		-88.22679	
91.20699	4302.813		-88.41961	
91.2611	4298.035		-88.60818	
91.31521	4293.281		-88.79212	
91.36932	4288.545		-88.97106	
91.42342	4283.814		-89.14466	
91.47753	4279.074		-89.31261	
91.53164	4274.311		-89.47465	
91.58575	4269.51		-89.63057	
91.63986	4264.667		-89.78019	
91.69397	4259.776		-89.92343	
91.74808	4254.84		-90.06024	
91.80219	4249.85		-90.19062	
91.85629	4244.807		-90.31455	
91.9104	4239.716		-90.43207	
91.96451	4234.593		-90.54317	
92.01862	4229.449		-90.6479	
92.07272	4224.288		-90.74628	
92.12683	4219.112		-90.83833	
92.18094	4213.924		-90.92404	
92.23505	4208.724		-91.0034	
92.28915	4203.51		-91.07639	
92.34327	4198.275		-91.14299	
92.39738	4193.024		-91.20317	
92.45148	4187.756		-91.17982	
92.50559	4182.482		-91.1541	
92.5597	4177.219		-91.12737	
92.61381	4171.988		-91.10062	
92.66792	4166.8		-91.07433	
92.72202	4161.666		-91.04865	
92.77613	4156.585		-91.02347	
92.83024	4151.566		-90.99857	
92.88435	4146.605		-90.97369	
92.93845	4141.697		-90.94858	
92.99256	4136.824		-90.923	
93.04667	4131.968		-90.89675	
93.10078	4127.113		-90.86962	
93.15489	4122.252		-90.84148	
93.209	4117.376		-90.81217	
93.26311	4112.481		-90.78162	
93.31721	4107.562		-90.74972	
93.37132	4102.625		-90.71642	
93.42543	4097.677		-90.68165	
93.47954	4092.723		-90.64538	
93.53365	4087.763		-90.60757	
93.58775	4082.809		-90.56819	
93.64186	4077.873		-90.52724	
93.69597	4072.962		-90.4847	
93.75008	4068.078		-90.44057	
93.80418	4063.22		-90.39488	
93.8583	4058.38		-90.34763	
93.91241	4053.555		-90.29885	
93.96651	4048.745		-90.24857	
94.02062	4043.948		-90.19683	
94.07473	4039.16		-90.14365	
94.12884	4034.521		-90.08908	
94.18295	4029.845		-90.03316	
94.23705	4025.157		-89.97592	
94.29116	4020.473		-89.91742	
94.34527	4015.797		-89.85769	
94.39938	4011.133		-89.79678	
94.45348	4006.483		-89.73474	
94.50759	4001.847		-89.67162	
94.5617	3997.224		-89.60744	
94.61581	3992.61		-89.54227	
94.66992	3988.006		-89.47615	
94.72403	3983.408		-89.40913	
94.77814	3978.815		-89.34124	
94.83224	3974.224		-89.27254	
94.88635	3969.632		-89.20306	
94.94046	3965.04		-89.13284	
94.99457	3960.446		-89.06192	
