T[Â°C]	330nm [counts / mm]	S.D.	First derivative	S.D. of first derivative
20.0012	3504.938	39.30799	-49.97455	1.234342
20.05515	3502.192	39.29716	-49.94439	1.210602
20.1091	3499.45	39.28273	-49.9139	1.187353
20.16305	3496.711	39.26514	-49.88307	1.164609
20.21699	3493.976	39.24549	-49.85189	1.142385
20.27094	3491.245	39.22394	-49.82036	1.120688
20.32489	3488.519	39.20134	-49.78848	1.09953
20.37884	3485.797	39.17744	-49.75624	1.078917
20.43279	3483.079	39.15247	-49.72365	1.058857
20.48673	3480.364	39.12604	-49.6907	1.039354
20.54068	3477.65	39.09769	-49.65741	1.020411
20.59463	3474.936	39.06717	-49.62377	1.002028
20.64857	3472.221	39.03392	-49.5898	0.9842014
20.70252	3469.503	38.99699	-49.55549	0.9669313
20.75647	3466.782	38.95456	-49.52086	0.950209
20.81042	3464.056	38.90393	-49.48592	0.934027
20.86437	3461.323	38.84047	-49.45067	0.9183694
20.91831	3458.584	38.75523	-49.41513	0.9032279
20.97226	3455.853	38.63795	-49.37933	0.8885862
21.02621	3453.228	38.52612	-49.34325	0.8744207
21.08016	3450.628	38.4417	-49.30694	0.8607157
21.1341	3448.047	38.38751	-49.2704	0.847441
21.18805	3445.474	38.35881	-49.23365	0.8345812
21.242	3442.896	38.34904	-49.1967	0.8221098
21.29595	3440.299	38.35437	-49.15959	0.8100076
21.34989	3437.675	38.37335	-49.12231	0.7982534
21.40384	3435.02	38.40392	-49.0849	0.7868325
21.45779	3432.339	38.44241	-49.04737	0.7757235
21.51174	3429.636	38.48568	-49.00974	0.7649183
21.56569	3426.92	38.5265	-48.97204	0.7544148
21.61963	3424.201	38.55975	-48.93429	0.7442088
21.67358	3421.488	38.5844	-48.89652	0.7343071
21.72753	3418.782	38.60563	-48.85876	0.7247281
21.78148	3416.084	38.6295	-48.82103	0.7154947
21.83542	3413.388	38.65808	-48.78337	0.7066393
21.88937	3410.692	38.68926	-48.7458	0.6982088
21.94332	3407.993	38.71662	-48.70835	0.690258
21.99727	3405.295	38.73654	-48.67104	0.6828474
22.05121	3402.603	38.74759	-48.63388	0.6760594
22.10516	3399.912	38.74898	-48.59692	0.6699815
22.15911	3397.218	38.74102	-48.56012	0.6647211
22.21306	3394.515	38.72319	-48.52349	0.6604043
22.267	3391.804	38.69121	-48.48698	0.6571891
22.32095	3389.09	38.63997	-48.45047	0.655257
22.3749	3386.381	38.56845	-48.4138	0.6548425
22.42885	3383.686	38.48278	-48.37665	0.6562405
22.48279	3381.015	38.38931	-48.3386	0.6598144
22.53674	3378.377	38.29725	-48.29908	0.6659769
22.59069	3375.776	38.21596	-48.25749	0.6750962
22.64464	3373.212	38.15228	-48.21334	0.689134
22.69859	3370.677	38.10863	-48.16904	0.7039037
22.75253	3368.163	38.082	-48.12459	0.719146
22.80648	3365.657	38.07255	-48.07997	0.7346158
22.86043	3363.147	38.08169	-48.03517	0.7500818
22.91438	3360.625	38.10645	-47.99018	0.7653253
22.96832	3358.09	38.13872	-47.94501	0.7801555
23.02227	3355.547	38.1732	-47.89968	0.7944172
23.07622	3353.002	38.20558	-47.85425	0.807982
23.13017	3350.463	38.22935	-47.8088	0.8207446
23.18411	3347.931	38.23746	-47.76345	0.8326076
23.23806	3345.409	38.22197	-47.71833	0.8434813
23.29201	3342.896	38.18426	-47.67362	0.8532735
23.34596	3340.39	38.13221	-47.62949	0.8619009
23.3999	3337.889	38.07278	-47.58613	0.8692772
23.45385	3335.388	38.0118	-47.54376	0.875312
23.5078	3332.886	37.95258	-47.50256	0.8799192
23.56175	3330.384	37.89154	-47.4627	0.8830108
23.6157	3327.878	37.82153	-47.42434	0.8845156
23.66964	3325.364	37.73846	-47.38754	0.8843898
23.72359	3322.839	37.63946	-47.35239	0.8826317
23.77754	3320.302	37.52483	-47.31892	0.8792915
23.83149	3317.752	37.39575	-47.28715	0.8744714
23.88543	3315.187	37.24902	-47.25708	0.8683363
23.93938	3312.607	37.08686	-47.22872	0.8610761
23.99333	3310.02	36.91431	-47.20206	0.8529401
24.04728	3307.435	36.73605	-47.17707	0.8441918
24.10122	3304.859	36.56006	-47.15369	0.8351275
24.15517	3302.298	36.39936	-47.13185	0.8260499
24.20912	3299.758	36.26523	-47.11143	0.8172499
24.26307	3297.241	36.16185	-47.09229	0.8090053
24.31701	3294.742	36.0878	-47.07429	0.8015459
24.37096	3292.254	36.03938	-47.05725	0.7950524
24.42491	3289.769	36.01219	-47.04102	0.7896536
24.47886	3287.277	35.99873	-47.02541	0.7854176
24.5328	3284.77	35.99141	-47.01027	0.7823671
24.58675	3282.247	35.98109	-46.99538	0.7804706
24.6407	3279.707	35.96116	-46.98056	0.7796424
24.69465	3277.155	35.92654	-46.9656	0.7797539
24.7486	3274.597	35.87719	-46.95028	0.7806385
24.80254	3272.035	35.82235	-46.93443	0.7821289
24.85649	3269.472	35.77262	-46.91787	0.7840726
24.91044	3266.911	35.73368	-46.90044	0.7863521
24.96439	3264.356	35.7096	-46.88202	0.7889023
25.01833	3261.811	35.70306	-46.86245	0.7916797
25.07228	3259.278	35.7131	-46.84166	0.7946898
25.12623	3256.758	35.73521	-46.81956	0.7979695
25.18018	3254.249	35.75989	-46.79615	0.8015954
25.23412	3251.749	35.77983	-46.77143	0.8056852
25.28807	3249.252	35.7897	-46.74545	0.8103876
25.34202	3246.748	35.78929	-46.71829	0.8158711
25.39597	3244.231	35.78107	-46.69009	0.8222952
25.44991	3241.699	35.77059	-46.661	0.829785
25.50386	3239.158	35.76235	-46.6312	0.8383994
25.55781	3236.61	35.75803	-46.60091	0.8481335
25.61176	3234.052	35.75639	-46.57033	0.858937
25.6657	3231.484	35.75597	-46.53963	0.8707061
25.71965	3228.908	35.76036	-46.509	0.8833109
25.7736	3226.33	35.7737	-46.47857	0.8966081
25.82755	3223.756	35.79496	-46.44846	0.9104573
25.8815	3221.188	35.82273	-46.41879	0.924709
25.93544	3218.622	35.85477	-46.38963	0.9392049
25.98939	3216.06	35.88702	-46.36105	0.9537706
26.04334	3213.499	35.91664	-46.33307	0.968208
26.09729	3210.942	35.94213	-46.30567	0.9823213
26.15123	3208.39	35.96314	-46.27877	0.9959056
26.20518	3205.844	35.97653	-46.25227	1.008771
26.25913	3203.307	35.97696	-46.22604	1.02072
26.31308	3200.783	35.96069	-46.19992	1.031585
26.36702	3198.269	35.92849	-46.17377	1.041221
26.42097	3195.763	35.88544	-46.14745	1.049527
26.47492	3193.26	35.83864	-46.12084	1.056461
26.52887	3190.761	35.79018	-46.09384	1.062032
26.58282	3188.271	35.73886	-46.06638	1.066271
26.63676	3185.795	35.67914	-46.03839	1.069226
26.69071	3183.344	35.60527	-46.00983	1.070958
26.74466	3180.92	35.51431	-45.98069	1.071536
26.7986	3178.521	35.4077	-45.95097	1.071027
26.85255	3176.141	35.28791	-45.92072	1.069512
26.9065	3173.778	35.15793	-45.88996	1.067081
26.96045	3171.425	35.01679	-45.85877	1.063834
27.0144	3169.076	34.86155	-45.82722	1.059865
27.06834	3166.725	34.69053	-45.79537	1.05526
27.12229	3164.374	34.50182	-45.76329	1.050095
27.17624	3162.023	34.29852	-45.7311	1.044471
27.23019	3159.669	34.08779	-45.69887	1.038502
27.28413	3157.305	33.87325	-45.66672	1.03232
27.33808	3154.92	33.65888	-45.63474	1.026056
27.39203	3152.506	33.44831	-45.60302	1.019821
27.44598	3150.061	33.24327	-45.57167	1.013685
27.49993	3147.59	33.05067	-45.54081	1.007671
27.55387	3145.097	32.87524	-45.51058	1.001784
27.60782	3142.591	32.71964	-45.48114	0.9960061
27.66177	3140.076	32.5891	-45.45266	0.9903131
27.71572	3137.557	32.48198	-45.42533	0.9846538
27.76966	3135.037	32.39279	-45.39933	0.9789736
27.82361	3132.52	32.3155	-45.37482	0.9732028
27.87756	3130.007	32.2443	-45.35195	0.9672533
27.93151	3127.5	32.17757	-45.3308	0.9610118
27.98545	3125	32.11954	-45.31145	0.954334
28.0394	3122.507	32.07658	-45.29391	0.9470448
28.09335	3120.019	32.05653	-45.27817	0.9389374
28.1473	3117.533	32.06246	-45.2641	0.9297984
28.20124	3115.046	32.08965	-45.25155	0.9194048
28.25519	3112.561	32.13074	-45.2403	0.9075534
28.30914	3110.082	32.18032	-45.23012	0.8940625
28.36309	3107.615	32.23393	-45.22073	0.8788074
28.41703	3105.161	32.28997	-45.21186	0.8617193
28.47098	3102.721	32.35025	-45.20322	0.8428144
28.52493	3100.292	32.41734	-45.19455	0.8221875
28.57888	3097.87	32.49273	-45.18564	0.8000048
28.63283	3095.458	32.57613	-45.17628	0.7765027
28.68677	3093.052	32.66245	-45.16631	0.7519642
28.74072	3090.654	32.74878	-45.15559	0.726724
28.79467	3088.263	32.83723	-45.14404	0.7011507
28.84862	3085.88	32.93196	-45.13158	0.6756384
28.90256	3083.504	33.03246	-45.11814	0.650602
28.95651	3081.129	33.12975	-45.10368	0.6264574
29.01046	3078.746	33.2103	-45.08812	0.6036159
29.06441	3076.351	33.25888	-45.07143	0.5824424
29.11835	3073.939	33.26775	-45.05361	0.5632547
29.1723	3071.512	33.24297	-45.03466	0.5463209
29.22625	3069.073	33.19244	-45.01461	0.531857
29.2802	3066.627	33.12522	-44.99353	0.5200142
29.33414	3064.177	33.05056	-44.97145	0.51088
29.38809	3061.724	32.97103	-44.94841	0.5044628
29.44204	3059.271	32.88852	-44.92445	0.5007027
29.49599	3056.821	32.80247	-44.89962	0.4994538
29.54993	3054.378	32.71402	-44.87396	0.5005227
29.60388	3051.948	32.63014	-44.84752	0.5036808
29.65783	3049.529	32.5572	-44.82037	0.5086929
29.71178	3047.116	32.49717	-44.79262	0.5153263
29.76573	3044.701	32.44255	-44.76435	0.5233587
29.81967	3042.28	32.38106	-44.73561	0.5325765
29.87362	3039.85	32.3048	-44.70646	0.5427625
29.92757	3037.414	32.20874	-44.67697	0.5537063
29.98152	3034.972	32.09304	-44.6472	0.5651863
30.03546	3032.529	31.96352	-44.61724	0.5770003
30.08941	3030.086	31.82765	-44.58715	0.5889564
30.14336	3027.646	31.6901	-44.557	0.6008725
30.19731	3025.208	31.5534	-44.5268	0.6125569
30.25125	3022.771	31.42572	-44.49656	0.6238096
30.3052	3020.334	31.31845	-44.46621	0.6344209
30.35915	3017.904	31.23968	-44.4357	0.6441966
30.4131	3015.485	31.195	-44.40494	0.6529781
30.46704	3013.082	31.18685	-44.37385	0.6606501
30.52099	3010.693	31.21394	-44.34237	0.6671419
30.57494	3008.317	31.27169	-44.31042	0.6724132
30.62889	3005.952	31.34926	-44.27798	0.6764469
30.68283	3003.596	31.43258	-44.24501	0.6792304
30.73678	3001.246	31.51123	-44.21152	0.6807566
30.79073	2998.903	31.57972	-44.17752	0.6810224
30.84468	2996.564	31.63574	-44.14307	0.6800451
30.89863	2994.226	31.67587	-44.10825	0.6778569
30.95257	2991.881	31.69643	-44.07315	0.6745075
31.00652	2989.527	31.69333	-44.03788	0.6700494
31.06047	2987.157	31.66422	-44.00257	0.6645654
31.11442	2984.771	31.61337	-43.96736	0.6581479
31.16836	2982.374	31.54865	-43.93242	0.6509046
31.22231	2979.974	31.47729	-43.89791	0.6429444
31.27626	2977.576	31.40689	-43.86399	0.6343764
31.33021	2975.182	31.34416	-43.83076	0.6253081
31.38416	2972.79	31.29397	-43.79835	0.6158177
31.4381	2970.398	31.25974	-43.7668	0.6059523
31.49205	2968.008	31.24074	-43.73613	0.5957308
31.546	2965.627	31.23075	-43.70634	0.5851422
31.59995	2963.26	31.22262	-43.67737	0.5741883
31.65389	2960.91	31.20745	-43.64912	0.5628992
31.70784	2958.568	31.17443	-43.62148	0.5513321
31.76179	2956.227	31.11505	-43.5943	0.5395938
31.81573	2953.877	31.02917	-43.56738	0.5277992
31.86968	2951.52	30.92209	-43.54054	0.5160919
31.92363	2949.154	30.80254	-43.51358	0.5046163
31.97758	2946.782	30.68271	-43.48634	0.4935217
32.03152	2944.41	30.57725	-43.45866	0.4829805
32.08547	2942.048	30.49733	-43.43041	0.4731972
32.13942	2939.706	30.44546	-43.40146	0.4644074
32.19337	2937.388	30.42034	-43.37168	0.4568648
32.24732	2935.088	30.41802	-43.34095	0.4508117
32.30127	2932.803	30.43187	-43.30913	0.4464725
32.35521	2930.533	30.45672	-43.27613	0.4440421
32.40916	2928.279	30.49113	-43.24191	0.4436587
32.46311	2926.036	30.53493	-43.20642	0.4453992
32.51706	2923.793	30.58797	-43.16972	0.4492579
32.571	2921.54	30.64597	-43.13184	0.4551323
32.62495	2919.268	30.69838	-43.09286	0.4628136
32.6789	2916.974	30.73158	-43.05288	0.4719987
32.73285	2914.662	30.73911	-43.01201	0.4823199
32.78679	2912.339	30.72285	-42.9704	0.4933825
32.84074	2910.013	30.68855	-42.92823	0.5048054
32.89469	2907.692	30.64176	-42.88572	0.5162345
32.94864	2905.381	30.58846	-42.84313	0.5273811
33.00258	2903.081	30.53087	-42.80074	0.5380121
33.05653	2900.785	30.46777	-42.75883	0.5479668
33.11048	2898.489	30.39826	-42.71772	0.5571398
33.16442	2896.186	30.32284	-42.67772	0.565501
33.21837	2893.872	30.24421	-42.63915	0.5730618
33.27232	2891.543	30.16471	-42.60229	0.5798805
33.32627	2889.195	30.08352	-42.56743	0.5860343
33.38022	2886.823	30.00292	-42.53481	0.5915952
33.43417	2884.423	29.92671	-42.50463	0.5966492
33.48811	2882	29.85875	-42.47704	0.6012644
33.54206	2879.564	29.807	-42.45211	0.6055098
33.59601	2877.127	29.77837	-42.42984	0.6094456
33.64996	2874.701	29.77416	-42.41017	0.613124
33.7039	2872.293	29.78976	-42.393	0.6165704
33.75785	2869.91	29.81922	-42.37817	0.6197954
33.8118	2867.556	29.85795	-42.36548	0.6228001
33.86575	2865.233	29.90166	-42.35472	0.6255808
33.91969	2862.941	29.94632	-42.34564	0.6281491
33.97364	2860.673	29.99302	-42.33799	0.6305285
34.02759	2858.425	30.04496	-42.33148	0.6327767
34.08154	2856.193	30.10532	-42.32583	0.634976
34.13548	2853.975	30.17743	-42.32075	0.6372241
34.18943	2851.762	30.25908	-42.31591	0.6396394
34.24338	2849.554	30.34571	-42.311	0.6423243
34.29733	2847.349	30.42788	-42.30571	0.6453801
34.35127	2845.147	30.49365	-42.29977	0.648883
34.40522	2842.953	30.53246	-42.29295	0.6528844
34.45917	2840.771	30.54273	-42.2851	0.6574046
34.51312	2838.602	30.53173	-42.27608	0.6624357
34.56707	2836.45	30.50717	-42.26583	0.6679579
34.62101	2834.315	30.47071	-42.2543	0.673914
34.67496	2832.195	30.41994	-42.24146	0.6802197
34.72891	2830.084	30.35185	-42.22731	0.6867696
34.78286	2827.979	30.26341	-42.21191	0.6934617
34.8368	2825.869	30.15203	-42.1953	0.7002148
34.89075	2823.746	30.01887	-42.17763	0.7069857
34.9447	2821.6	29.8702	-42.15904	0.7137898
34.99865	2819.421	29.71309	-42.13972	0.720686
35.05259	2817.2	29.55166	-42.11987	0.727761
35.10654	2814.933	29.38907	-42.09972	0.7350929
35.16049	2812.624	29.2303	-42.0795	0.7427512
35.21444	2810.278	29.08314	-42.05949	0.7507913
35.26838	2807.904	28.95523	-42.03999	0.7592537
35.32233	2805.512	28.85281	-42.02128	0.768168
35.37628	2803.114	28.77823	-42.00366	0.7775285
35.43023	2800.718	28.72861	-41.98739	0.7872887
35.48417	2798.334	28.69709	-41.97271	0.7973686
35.53812	2795.962	28.67676	-41.95978	0.8076367
35.59207	2793.604	28.66171	-41.94869	0.8179092
35.64602	2791.257	28.64879	-41.93945	0.827966
35.69997	2788.917	28.63387	-41.93203	0.8375483
35.75391	2786.58	28.61514	-41.92632	0.8463758
35.80786	2784.242	28.59292	-41.92211	0.8541732
35.86181	2781.903	28.56492	-41.91916	0.8606753
35.91576	2779.557	28.5302	-41.91715	0.8656443
35.9697	2777.202	28.48938	-41.9157	0.8688881
36.02365	2774.84	28.44222	-41.9144	0.8702725
36.0776	2772.478	28.38857	-41.91282	0.8697063
36.13155	2770.121	28.32989	-41.91053	0.8671369
36.18549	2767.784	28.27303	-41.9071	0.8625404
36.23944	2765.478	28.22609	-41.90214	0.8559211
36.29339	2763.209	28.19331	-41.89526	0.8473237
36.34734	2760.977	28.16891	-41.88612	0.836835
36.40128	2758.778	28.14397	-41.87442	0.8245599
36.45523	2756.601	28.1118	-41.85988	0.810622
36.50918	2754.438	28.06666	-41.84229	0.7951611
36.56313	2752.277	28.00465	-41.82149	0.7783129
36.61707	2750.108	27.92355	-41.79736	0.7601953
36.67102	2747.924	27.82833	-41.76982	0.740894
36.72497	2745.719	27.72909	-41.73886	0.7204832
36.77892	2743.491	27.63822	-41.7045	0.6990129
36.83287	2741.247	27.5666	-41.66679	0.6765317
36.88681	2738.996	27.52079	-41.62586	0.6530901
36.94076	2736.746	27.50533	-41.58185	0.6287615
36.99471	2734.501	27.52141	-41.53497	0.6036525
37.04866	2732.261	27.56402	-41.48545	0.5778844
37.1026	2730.031	27.62049	-41.43357	0.551605
37.15655	2727.815	27.67495	-41.37964	0.5249695
37.2105	2725.611	27.71596	-41.32402	0.4981424
37.26445	2723.415	27.73697	-41.26709	0.4712888
37.31839	2721.222	27.73546	-41.2093	0.4445663
37.37234	2719.027	27.71204	-41.15107	0.418106
37.42629	2716.821	27.66956	-41.09286	0.3920135
37.48024	2714.596	27.6105	-41.03511	0.3663527
37.53418	2712.348	27.5357	-40.97822	0.3411753
37.58813	2710.076	27.45164	-40.92258	0.3164938
37.64208	2707.786	27.36701	-40.86852	0.2923232
37.69603	2705.484	27.28828	-40.81632	0.2687064
37.74998	2703.182	27.21916	-40.76623	0.2457327
37.80392	2700.889	27.16167	-40.71842	0.2236078
37.85787	2698.609	27.11687	-40.67302	0.2026797
37.91182	2696.343	27.08658	-40.6301	0.1835176
37.96577	2694.09	27.06915	-40.58968	0.1669576
38.01971	2691.849	27.05851	-40.55172	0.1541322
38.07366	2689.62	27.04799	-40.51613	0.1463523
38.12761	2687.402	27.03309	-40.48278	0.144734
38.18156	2685.2	27.01289	-40.45149	0.1497102
38.2355	2683.016	26.99118	-40.42208	0.1607744
38.28945	2680.847	26.97488	-40.39432	0.1767542
38.3434	2678.689	26.96988	-40.36797	0.1962912
38.39735	2676.543	26.98492	-40.34276	0.2181707
38.45129	2674.411	27.02677	-40.31845	0.2414288
38.50524	2672.294	27.09725	-40.29477	0.2653491
38.55919	2670.196	27.19088	-40.2715	0.2893947
38.61314	2668.117	27.29688	-40.24842	0.3131827
38.66708	2666.052	27.40655	-40.22537	0.3364476
38.72103	2663.992	27.5101	-40.20218	0.3590393
38.77498	2661.932	27.60251	-40.1787	0.3808775
38.82893	2659.869	27.67692	-40.15482	0.4019382
38.88288	2657.805	27.72903	-40.13041	0.4222146
38.93682	2655.741	27.75843	-40.10542	0.4417182
38.99077	2653.674	27.77032	-40.07977	0.4604615
39.04472	2651.601	27.77026	-40.05345	0.47844
39.09867	2649.52	27.76446	-40.02647	0.4956335
39.15261	2647.424	27.75972	-39.99886	0.5120118
39.20656	2645.309	27.76236	-39.9707	0.5275509
39.26051	2643.177	27.77569	-39.94208	0.5422453
39.31446	2641.033	27.80021	-39.91311	0.5561157
39.3684	2638.885	27.83512	-39.88391	0.5692247
39.42235	2636.732	27.87687	-39.85461	0.5816612
39.4763	2634.578	27.91787	-39.82535	0.5935409
39.53025	2632.418	27.94933	-39.79625	0.6049985
39.58419	2630.251	27.96581	-39.76744	0.6161674
39.63814	2628.074	27.96301	-39.73909	0.6271657
39.69209	2625.889	27.93575	-39.71131	0.638103
39.74604	2623.7	27.88016	-39.68426	0.6490621
39.79998	2621.507	27.79731	-39.65809	0.660108
39.85393	2619.311	27.69582	-39.63293	0.6712611
39.90788	2617.112	27.58471	-39.60892	0.6824929
39.96183	2614.913	27.47179	-39.58614	0.6937032
40.01578	2612.713	27.36192	-39.56467	0.7047541
40.06973	2610.512	27.25667	-39.54455	0.7154514
40.12367	2608.315	27.15617	-39.52579	0.7255586
40.17762	2606.129	27.05975	-39.50837	0.7348259
40.23157	2603.96	26.97015	-39.49224	0.7429851
40.28551	2601.804	26.88719	-39.47731	0.7497912
40.33946	2599.661	26.80984	-39.46344	0.7550178
40.39341	2597.525	26.73491	-39.45045	0.7584916
40.44736	2595.39	26.6578	-39.43816	0.7600855
40.5013	2593.248	26.57396	-39.42635	0.7597251
40.55525	2591.097	26.47817	-39.41481	0.7573963
40.6092	2588.937	26.37138	-39.40335	0.7531365
40.66315	2586.77	26.25838	-39.39178	0.7470641
40.71709	2584.599	26.14593	-39.37995	0.7393485
40.77104	2582.427	26.03746	-39.36769	0.7302122
40.82499	2580.257	25.93114	-39.35489	0.7198938
40.87894	2578.093	25.82616	-39.34141	0.7086409
40.93288	2575.937	25.72481	-39.32718	0.6966954
40.98683	2573.791	25.629	-39.31211	0.6842752
41.04078	2571.659	25.54062	-39.29615	0.6715598
41.09473	2569.546	25.46227	-39.27927	0.6586973
41.14868	2567.453	25.39595	-39.26145	0.645791
41.20263	2565.382	25.33945	-39.24266	0.6329307
41.25657	2563.335	25.28768	-39.22286	0.6201966
41.31052	2561.306	25.23848	-39.20204	0.6076649
41.36447	2559.289	25.19066	-39.18017	0.5954044
41.41842	2557.272	25.14142	-39.15726	0.583482
41.47236	2555.249	25.08633	-39.13332	0.5719712
41.52631	2553.217	25.02643	-39.10837	0.560963
41.58026	2551.171	24.96787	-39.08247	0.5505657
41.6342	2549.112	24.91541	-39.05569	0.5408891
41.68815	2547.04	24.87187	-39.02817	0.5320538
41.7421	2544.959	24.83576	-39.00003	0.524161
41.79605	2542.873	24.80822	-38.97145	0.5173048
41.84999	2540.785	24.79132	-38.94258	0.5115642
41.90394	2538.704	24.78612	-38.91363	0.5069823
41.95789	2536.632	24.79907	-38.88475	0.5035799
42.01184	2534.565	24.83352	-38.85609	0.5013471
42.06578	2532.497	24.88763	-38.82779	0.5002386
42.11973	2530.422	24.95563	-38.79997	0.5001632
42.17368	2528.337	25.03509	-38.77273	0.5009751
42.22763	2526.237	25.12677	-38.74615	0.5024822
42.28158	2524.119	25.22976	-38.72028	0.5044652
42.33553	2521.985	25.34171	-38.69515	0.506703
42.38947	2519.839	25.4586	-38.67072	0.5089864
42.44342	2517.687	25.57612	-38.64692	0.5111265
42.49737	2515.53	25.69086	-38.62368	0.512965
42.55132	2513.377	25.79745	-38.60088	0.5143753
42.60526	2511.231	25.8897	-38.57842	0.5152947
42.65921	2509.096	25.96641	-38.55618	0.5157203
42.71316	2506.971	26.03231	-38.53408	0.5157318
42.76711	2504.858	26.09027	-38.51205	0.5154696
42.82105	2502.759	26.13916	-38.49002	0.5151016
42.875	2500.673	26.17747	-38.46794	0.5148039
42.92895	2498.601	26.20048	-38.44579	0.5147226
42.98289	2496.545	26.20183	-38.42354	0.5149668
43.03684	2494.499	26.17716	-38.40119	0.5155863
43.09079	2492.456	26.12678	-38.37874	0.5165612
43.14474	2490.405	26.05317	-38.35621	0.517813
43.19868	2488.345	25.95748	-38.33363	0.5192071
43.25263	2486.272	25.84126	-38.31103	0.5205646
43.30658	2484.188	25.70965	-38.28843	0.5216776
43.36053	2482.094	25.56879	-38.26585	0.522328
43.41448	2479.993	25.42384	-38.24331	0.5223041
43.46843	2477.895	25.27563	-38.22079	0.5214193
43.52237	2475.806	25.12461	-38.19831	0.5195238
43.57632	2473.73	24.97365	-38.17589	0.5165005
43.63027	2471.665	24.82688	-38.15356	0.5122743
43.68422	2469.611	24.69014	-38.13139	0.5068252
43.73816	2467.563	24.56737	-38.10941	0.5001793
43.79211	2465.522	24.45912	-38.08768	0.4924221
43.84606	2463.488	24.35763	-38.06626	0.4837177
43.90001	2461.46	24.2579	-38.04518	0.4743023
43.95395	2459.436	24.15944	-38.02446	0.4644908
44.0079	2457.412	24.06034	-38.0041	0.4546424
44.06185	2455.388	23.95594	-37.98411	0.4451581
44.1158	2453.358	23.84255	-37.96447	0.4364284
44.16974	2451.32	23.7212	-37.94515	0.4287897
44.22369	2449.274	23.59876	-37.9261	0.4224673
44.27764	2447.224	23.48517	-37.90727	0.4175646
44.33158	2445.172	23.38934	-37.8886	0.4140459
44.38554	2443.119	23.31711	-37.87001	0.4117482
44.43948	2441.066	23.27385	-37.85144	0.410403
44.49343	2439.015	23.2623	-37.83275	0.4096667
44.54738	2436.973	23.27827	-37.81383	0.4091495
44.60133	2434.943	23.31159	-37.79452	0.4084498
44.65527	2432.928	23.3523	-37.77467	0.4072014
44.70922	2430.928	23.3955	-37.75413	0.4051036
44.76317	2428.94	23.43966	-37.73273	0.4019496
44.81712	2426.958	23.48407	-37.71036	0.3976434
44.87106	2424.973	23.52743	-37.68691	0.3921822
44.92501	2422.982	23.56886	-37.6623	0.3856605
44.97896	2420.985	23.61037	-37.63648	0.3782555
45.03291	2418.986	23.65375	-37.60942	0.3702381
45.08685	2416.985	23.70527	-37.58114	0.3619303
45.1408	2414.988	23.76786	-37.55167	0.353709
45.19475	2412.996	23.83887	-37.52109	0.3459695
45.2487	2411.01	23.91199	-37.4895	0.3391191
45.30264	2409.026	23.97919	-37.45704	0.3335301
45.35659	2407.04	24.0391	-37.42383	0.3295363
45.41054	2405.044	24.09267	-37.39004	0.3274079
45.46449	2403.039	24.14212	-37.35585	0.3273278
45.51844	2401.028	24.19079	-37.32144	0.3293601
45.57238	2399.01	24.23766	-37.28703	0.3334522
45.62633	2396.982	24.28321	-37.25284	0.3394409
45.68028	2394.942	24.32868	-37.21907	0.3470793
45.73423	2392.885	24.37649	-37.18592	0.3560557
45.78817	2390.812	24.42646	-37.15359	0.3660366
45.84212	2388.722	24.47818	-37.1222	0.3766958
45.89607	2386.62	24.53116	-37.09187	0.3877439
45.95002	2384.512	24.58246	-37.06265	0.3989308
46.00396	2382.407	24.63091	-37.03458	0.4100636
46.05791	2380.311	24.6755	-37.00768	0.4210214
46.11186	2378.22	24.71062	-36.98191	0.4317627
46.16581	2376.131	24.73214	-36.95725	0.4423201
46.21975	2374.043	24.73769	-36.93361	0.452777
46.2737	2371.954	24.72801	-36.9109	0.4632617
46.32765	2369.867	24.70701	-36.88902	0.4739084
46.3816	2367.787	24.67754	-36.86789	0.4848404
46.43554	2365.721	24.641	-36.84736	0.4961415
46.48949	2363.676	24.596	-36.82732	0.50785
46.54344	2361.655	24.53933	-36.80759	0.5199425
46.59739	2359.662	24.4663	-36.78799	0.5323041
46.65134	2357.697	24.3732	-36.76834	0.544745
46.70528	2355.761	24.25846	-36.74841	0.557021
46.75923	2353.855	24.12346	-36.72802	0.568857
46.81318	2351.977	23.96956	-36.70695	0.5799693
46.86713	2350.118	23.7962	-36.68502	0.5900673
46.92107	2348.27	23.60516	-36.66204	0.5988741
46.97502	2346.422	23.40105	-36.63787	0.6061306
47.02897	2344.57	23.19247	-36.61239	0.6116198
47.08292	2342.712	22.98985	-36.58551	0.6151772
47.13686	2340.848	22.80405	-36.5572	0.6166854
47.19081	2338.981	22.64459	-36.52743	0.6161045
47.24476	2337.114	22.51583	-36.49622	0.6134549
47.29871	2335.248	22.41384	-36.46362	0.6087987
47.35265	2333.377	22.33174	-36.42972	0.6022246
47.4066	2331.492	22.26238	-36.39468	0.5938236
47.46055	2329.591	22.20289	-36.35865	0.5836986
47.5145	2327.673	22.15106	-36.32188	0.57196
47.56844	2325.741	22.10311	-36.28463	0.5587367
47.62239	2323.799	22.05822	-36.24715	0.5441574
47.67634	2321.845	22.01886	-36.20975	0.5283484
47.73029	2319.882	21.98798	-36.17268	0.511435
47.78424	2317.909	21.96913	-36.1362	0.4935334
47.83818	2315.922	21.96657	-36.10052	0.4747797
47.89213	2313.923	21.98081	-36.06582	0.455338
47.94608	2311.913	22.00749	-36.03223	0.4354045
48.00003	2309.897	22.04358	-35.99988	0.4152045
48.05397	2307.878	22.08835	-35.96884	0.3950025
48.10792	2305.858	22.13864	-35.93918	0.3751002
48.16187	2303.835	22.18715	-35.9109	0.3558222
48.21582	2301.813	22.22621	-35.884	0.3375286
48.26976	2299.792	22.25019	-35.85844	0.3205687
48.32371	2297.773	22.25626	-35.83414	0.3052707
48.37766	2295.762	22.24557	-35.811	0.2919021
48.43161	2293.761	22.22316	-35.7889	0.2806293
48.48555	2291.775	22.19663	-35.76772	0.2714985
48.5395	2289.805	22.17556	-35.74731	0.2644215
48.59345	2287.848	22.16735	-35.7275	0.2591842
48.6474	2285.903	22.17339	-35.70811	0.2554614
48.70134	2283.97	22.19029	-35.68895	0.2528729
48.75529	2282.05	22.21876	-35.6698	0.2510388
48.80924	2280.143	22.25665	-35.65047	0.2496291
48.86319	2278.248	22.30084	-35.63077	0.2484056
48.91714	2276.362	22.35103	-35.61053	0.2472438
48.97108	2274.478	22.41072	-35.58957	0.2461419
49.02503	2272.59	22.48146	-35.56776	0.2452167
49.07898	2270.695	22.56062	-35.54495	0.2446874
49.13293	2268.791	22.64628	-35.52104	0.2448596
49.18687	2266.879	22.74103	-35.49594	0.2460747
49.24082	2264.962	22.84568	-35.46956	0.2486913
49.29477	2263.044	22.95745	-35.44185	0.2530169
49.34872	2261.132	23.06946	-35.4128	0.2592755
49.40266	2259.231	23.17565	-35.3824	0.2675731
49.45661	2257.344	23.27129	-35.35073	0.2779049
49.51056	2255.471	23.35352	-35.31789	0.2901897
49.56451	2253.609	23.42084	-35.28403	0.3042887
49.61845	2251.748	23.47277	-35.24934	0.3200113
49.6724	2249.882	23.50788	-35.21405	0.3371473
49.72635	2248.008	23.52371	-35.17839	0.3554465
49.7803	2246.128	23.51989	-35.14262	0.3746472
49.83424	2244.24	23.4993	-35.10698	0.3944817
49.88819	2242.345	23.46551	-35.07171	0.4146929
49.94214	2240.447	23.42122	-35.03701	0.4350532
49.99609	2238.551	23.36962	-35.00309	0.4553495
50.05004	2236.656	23.31363	-34.97013	0.4753737
50.10398	2234.766	23.25167	-34.93832	0.4949166
50.15793	2232.878	23.18298	-34.9078	0.5137591
50.21188	2230.991	23.10557	-34.87869	0.5317146
50.26583	2229.104	23.01664	-34.85109	0.5486113
50.31977	2227.214	22.91497	-34.82505	0.5643133
50.37372	2225.325	22.79635	-34.80057	0.5787094
50.42767	2223.441	22.65719	-34.77766	0.591725
50.48162	2221.568	22.49656	-34.75628	0.6033251
50.53556	2219.705	22.31862	-34.73639	0.6135273
50.58951	2217.851	22.13139	-34.71793	0.6223944
50.64346	2216.004	21.94543	-34.70085	0.6300158
50.69741	2214.158	21.77403	-34.68506	0.6364909
50.75135	2212.308	21.62569	-34.67051	0.6419383
50.8053	2210.448	21.50185	-34.65711	0.646484
50.85925	2208.584	21.39681	-34.64483	0.6502722
50.9132	2206.717	21.3027	-34.63364	0.6534346
50.96714	2204.85	21.21278	-34.62351	0.6560807
51.02109	2202.985	21.12164	-34.61443	0.6582914
51.07504	2201.125	21.02681	-34.60635	0.6601006
51.12899	2199.272	20.92922	-34.59926	0.6615064
51.18294	2197.425	20.83311	-34.59309	0.6624771
51.23689	2195.583	20.74401	-34.58778	0.6629739
51.29083	2193.747	20.66582	-34.58325	0.6629669
51.34478	2191.913	20.59795	-34.57941	0.6624213
51.39873	2190.08	20.53837	-34.57621	0.6613084
51.45267	2188.248	20.48886	-34.57355	0.6596105
51.50662	2186.415	20.45426	-34.5714	0.6573312
51.56057	2184.58	20.44182	-34.5697	0.6544833
51.61452	2182.741	20.45605	-34.56841	0.6510827
51.66846	2180.894	20.49466	-34.5675	0.6471503
51.72241	2179.042	20.55019	-34.56695	0.6427037
51.77636	2177.186	20.61108	-34.56672	0.6377463
51.83031	2175.327	20.66651	-34.56681	0.6322615
51.88425	2173.464	20.71253	-34.56719	0.6262261
51.9382	2171.596	20.75246	-34.56784	0.619606
51.99215	2169.72	20.79118	-34.56874	0.6123933
52.0461	2167.838	20.82944	-34.56984	0.6045821
52.10004	2165.952	20.8667	-34.57112	0.596168
52.154	2164.068	20.90265	-34.57254	0.5871721
52.20794	2162.191	20.93762	-34.57405	0.5776278
52.26189	2160.318	20.97559	-34.57563	0.5676097
52.31584	2158.446	21.02183	-34.57719	0.5572047
52.36979	2156.573	21.08063	-34.57867	0.5465207
52.42373	2154.698	21.15012	-34.57996	0.5356806
52.47768	2152.822	21.22446	-34.58092	0.5248201
52.53163	2150.948	21.29257	-34.58142	0.5140681
52.58558	2149.08	21.34457	-34.58132	0.5035331
52.63952	2147.217	21.37698	-34.58046	0.4933089
52.69347	2145.356	21.3896	-34.5787	0.4834585
52.74742	2143.493	21.38391	-34.57589	0.4740252
52.80136	2141.63	21.35986	-34.57193	0.4650311
52.85531	2139.769	21.31691	-34.5667	0.4564866
52.90926	2137.912	21.25948	-34.56013	0.4483812
52.96321	2136.061	21.19297	-34.55217	0.4407045
53.01715	2134.213	21.11978	-34.54278	0.4334505
53.0711	2132.365	21.04284	-34.5319	0.4266219
53.12505	2130.51	20.96566	-34.5195	0.4202137
53.179	2128.641	20.892	-34.50554	0.4142226
53.23294	2126.754	20.8304	-34.48996	0.4086544
53.2869	2124.854	20.78654	-34.47276	0.403506
53.34084	2122.944	20.75871	-34.4539	0.3987802
53.39479	2121.032	20.73865	-34.43341	0.3944547
53.44874	2119.12	20.7163	-34.41129	0.3905134
53.50269	2117.213	20.68345	-34.38758	0.3869309
53.55663	2115.315	20.6376	-34.36233	0.3836811
53.61058	2113.424	20.5778	-34.33558	0.3807312
53.66453	2111.54	20.5051	-34.30739	0.3780366
53.71848	2109.662	20.42088	-34.27782	0.375566
53.77242	2107.792	20.3209	-34.24693	0.3732781
53.82637	2105.932	20.20114	-34.21479	0.3711375
53.88032	2104.082	20.06468	-34.18149	0.3690945
53.93427	2102.237	19.92052	-34.14707	0.3671164
53.98821	2100.39	19.77873	-34.11161	0.3651771
54.04216	2098.535	19.64706	-34.07517	0.3632794
54.09611	2096.666	19.53316	-34.0378	0.3614333
54.15005	2094.785	19.44228	-33.99959	0.3596633
54.204	2092.894	19.37593	-33.96062	0.3579942
54.25795	2090.999	19.33153	-33.92098	0.3564613
54.3119	2089.106	19.30526	-33.88079	0.3550999
54.36585	2087.222	19.29173	-33.84014	0.353946
54.4198	2085.351	19.28713	-33.79913	0.3530343
54.47374	2083.502	19.28433	-33.75787	0.3523953
54.52769	2081.678	19.27765	-33.71645	0.3520314
54.58164	2079.882	19.26604	-33.67495	0.3519035
54.63559	2078.107	19.25221	-33.63346	0.3519434
54.68953	2076.344	19.24131	-33.59203	0.3520701
54.74348	2074.579	19.23723	-33.55071	0.3521869
54.79743	2072.803	19.24014	-33.50953	0.3521946
54.85138	2071.012	19.25395	-33.46849	0.3520034
54.90532	2069.208	19.28744	-33.42762	0.3515261
54.95927	2067.39	19.34574	-33.38691	0.3506998
55.01322	2065.565	19.42838	-33.34637	0.3494911
55.06717	2063.743	19.53268	-33.30604	0.3479015
55.12111	2061.928	19.65185	-33.26591	0.3459666
55.17506	2060.125	19.77833	-33.22602	0.3437572
55.22901	2058.337	19.90531	-33.18639	0.3413552
55.28296	2056.568	20.02668	-33.14706	0.3388639
55.3369	2054.818	20.13654	-33.10812	0.3364037
55.39085	2053.085	20.22787	-33.06965	0.3341224
55.4448	2051.364	20.29447	-33.03178	0.3321848
55.49875	2049.651	20.33368	-32.99464	0.3307826
55.5527	2047.944	20.34326	-32.95832	0.3301048
55.60664	2046.237	20.32343	-32.92294	0.3303464
55.66059	2044.526	20.28312	-32.88859	0.331706
55.71454	2042.808	20.23339	-32.85534	0.3343755
55.76849	2041.081	20.18397	-32.82324	0.3385254
55.82243	2039.344	20.14097	-32.79234	0.3442966
55.87638	2037.598	20.1065	-32.76269	0.3517686
55.93033	2035.845	20.08126	-32.73432	0.3609688
55.98428	2034.087	20.06288	-32.70724	0.3718902
56.03822	2032.325	20.04894	-32.68144	0.3844855
56.09217	2030.561	20.03501	-32.65693	0.3986667
56.14612	2028.798	20.0184	-32.63367	0.4143097
56.20007	2027.037	19.99822	-32.61163	0.4312476
56.25401	2025.28	19.97409	-32.59079	0.4492778
56.30796	2023.528	19.94248	-32.57108	0.4681574
56.36191	2021.778	19.90038	-32.55242	0.4876274
56.41586	2020.029	19.84787	-32.53471	0.5074416
56.4698	2018.281	19.78688	-32.51783	0.5273625
56.52375	2016.537	19.72076	-32.50161	0.5471696
56.5777	2014.796	19.65204	-32.48587	0.5666559
56.63165	2013.057	19.58529	-32.47046	0.5856258
56.6856	2011.314	19.52339	-32.45518	0.6038894
56.73954	2009.566	19.46585	-32.43983	0.62126
56.79349	2007.813	19.41109	-32.42419	0.637542
56.84744	2006.056	19.35777	-32.40806	0.6525279
56.90139	2004.295	19.30368	-32.39122	0.666005
56.95533	2002.53	19.24663	-32.3735	0.6777557
57.00928	2000.76	19.1823	-32.3547	0.6875691
57.06323	1998.986	19.10729	-32.33468	0.6952502
57.11718	1997.209	19.0205	-32.3133	0.7006307
57.17112	1995.431	18.92195	-32.29041	0.7035764
57.22507	1993.658	18.81393	-32.26591	0.7039775
57.27902	1991.896	18.69926	-32.23969	0.7017562
57.33297	1990.151	18.58117	-32.21169	0.6968695
57.38691	1988.423	18.46426	-32.18192	0.6893272
57.44086	1986.709	18.35557	-32.15036	0.6791939
57.49481	1985.004	18.2623	-32.11708	0.666581
57.54876	1983.299	18.18805	-32.08213	0.6516285
57.6027	1981.589	18.13113	-32.04559	0.634517
57.65665	1979.87	18.08732	-32.00756	0.6154512
57.7106	1978.139	18.05265	-31.96813	0.5946572
57.76455	1976.397	18.02478	-31.92743	0.5723704
57.8185	1974.641	18.00254	-31.88558	0.5488409
57.87244	1972.874	17.9839	-31.84278	0.5243196
57.92639	1971.098	17.96536	-31.79919	0.4990616
57.98034	1969.316	17.94565	-31.75503	0.47333
58.03429	1967.529	17.92495	-31.71051	0.4473803
58.08823	1965.745	17.90442	-31.66586	0.4214522
58.14218	1963.966	17.88583	-31.62131	0.39578
58.19613	1962.198	17.87188	-31.57709	0.3705775
58.25008	1960.442	17.86465	-31.53341	0.3460506
58.30402	1958.701	17.86128	-31.49049	0.3223733
58.35797	1956.972	17.85942	-31.4485	0.2996978
58.41192	1955.248	17.85831	-31.40758	0.2781492
58.46587	1953.524	17.85787	-31.36783	0.2578326
58.51981	1951.799	17.85551	-31.3293	0.2388085
58.57376	1950.074	17.84938	-31.292	0.221091
58.62771	1948.349	17.83824	-31.25592	0.2046432
58.68166	1946.623	17.82398	-31.22102	0.1893738
58.7356	1944.896	17.80803	-31.18724	0.1751312
58.78955	1943.168	17.78958	-31.1545	0.1617147
58.8435	1941.442	17.76767	-31.12273	0.148882
58.89745	1939.726	17.74736	-31.09185	0.1363719
58.9514	1938.03	17.73455	-31.06176	0.1239329
59.00534	1936.364	17.73522	-31.03237	0.1113434
59.05929	1934.734	17.75241	-31.00357	0.09840927
59.11324	1933.139	17.78738	-30.97523	0.08497249
59.16719	1931.573	17.84135	-30.94719	0.07091735
59.22113	1930.031	17.91212	-30.91924	0.05617751
59.27508	1928.505	17.99753	-30.89118	0.0407497
59.32903	1926.99	18.096	-30.86279	0.02469378
59.38298	1925.48	18.20283	-30.83385	0.00826937
59.43692	1923.966	18.31326	-30.80412	0.009573631
59.49087	1922.443	18.42386	-30.77337	0.02683681
59.54482	1920.904	18.52942	-30.74141	0.0444486
59.59877	1919.345	18.62497	-30.70803	0.06211617
59.65271	1917.76	18.70513	-30.67308	0.07967933
59.70666	1916.154	18.76612	-30.63645	0.09699561
59.76061	1914.533	18.80941	-30.59805	0.1139407
59.81456	1912.908	18.83842	-30.55785	0.1304142
59.8685	1911.286	18.85592	-30.51586	0.1463356
59.92245	1909.667	18.86249	-30.47211	0.1616481
59.9764	1908.051	18.85806	-30.42666	0.1763168
60.03035	1906.435	18.84221	-30.37958	0.1903277
60.0843	1904.815	18.81638	-30.33094	0.2036976
60.13824	1903.185	18.78312	-30.28082	0.2164686
60.19219	1901.541	18.74666	-30.22929	0.2287154
60.24614	1899.884	18.7086	-30.17644	0.2405393
60.30009	1898.215	18.671	-30.12232	0.2520405
60.35403	1896.536	18.63497	-30.06699	0.2633245
60.40798	1894.844	18.60185	-30.01048	0.2744814
60.46193	1893.14	18.56961	-29.95282	0.2856008
60.51588	1891.422	18.53291	-29.894	0.2967563
60.56982	1889.695	18.48822	-29.83402	0.3080063
60.62377	1887.966	18.43653	-29.77287	0.3193802
60.67772	1886.24	18.37925	-29.71051	0.3308786
60.73167	1884.523	18.31563	-29.64694	0.3424715
60.78561	1882.817	18.24619	-29.58211	0.3540981
60.83956	1881.122	18.17362	-29.51601	0.3656666
60.89351	1879.436	18.10206	-29.44857	0.37707
60.94746	1877.76	18.03612	-29.37975	0.3881917
61.0014	1876.092	17.97978	-29.30946	0.3989273
61.05536	1874.431	17.93616	-29.23763	0.4091799
61.1093	1872.773	17.90778	-29.16414	0.4188689
61.16325	1871.117	17.89129	-29.08888	0.4279201
61.2172	1869.46	17.88281	-29.01169	0.4362652
61.27114	1867.803	17.8789	-28.93242	0.4438269
61.32509	1866.147	17.87525	-28.85089	0.4505247
61.37904	1864.494	17.86774	-28.76697	0.4562696
61.43299	1862.849	17.85487	-28.68047	0.4609718
61.48693	1861.217	17.83364	-28.59125	0.4645375
61.54088	1859.601	17.80014	-28.49913	0.4668707
61.59483	1858.004	17.75034	-28.40396	0.4678639
61.64878	1856.429	17.68382	-28.30559	0.4674054
61.70272	1854.879	17.60308	-28.20385	0.4653843
61.75667	1853.358	17.51314	-28.09863	0.4617001
61.81062	1851.866	17.42131	-27.98985	0.4562699
61.86457	1850.401	17.33563	-27.87744	0.4490405
61.91851	1848.96	17.26326	-27.76135	0.4399858
61.97246	1847.542	17.20971	-27.64156	0.429115
62.02641	1846.143	17.1768	-27.51802	0.4164623
62.08036	1844.758	17.1632	-27.39069	0.4020818
62.13431	1843.379	17.16718	-27.25953	0.3860577
62.18826	1842.001	17.18414	-27.12447	0.3685051
62.2422	1840.62	17.208	-26.98545	0.3495689
62.29615	1839.234	17.23128	-26.84241	0.3294295
62.3501	1837.84	17.24828	-26.69529	0.3083072
62.40405	1836.438	17.25315	-26.54402	0.2864704
62.45799	1835.028	17.24115	-26.38849	0.2642556
62.51194	1833.616	17.21133	-26.2286	0.242088
62.56589	1832.208	17.16696	-26.06422	0.2205149
62.61983	1830.809	17.11679	-25.89523	0.2002619
62.67378	1829.424	17.07138	-25.72145	0.1822949
62.72773	1828.052	17.03976	-25.54271	0.1678355
62.78168	1826.691	17.02965	-25.35881	0.158283
62.83562	1825.335	17.04647	-25.16953	0.1549232
62.88957	1823.981	17.09431	-24.97458	0.1584618
62.94352	1822.623	17.17085	-24.77367	0.1687138
62.99747	1821.256	17.26679	-24.56646	0.1847602
63.05141	1819.879	17.37162	-24.35259	0.2054024
63.10536	1818.494	17.47462	-24.13166	0.2295232
63.15931	1817.106	17.56538	-23.90327	0.2562309
63.21326	1815.722	17.63488	-23.66696	0.2848646
63.26721	1814.346	17.67691	-23.42231	0.3149517
63.32116	1812.98	17.6906	-23.16885	0.3461544
63.3751	1811.629	17.68128	-22.90615	0.37822
63.42905	1810.298	17.65841	-22.63374	0.4109529
63.483	1808.986	17.63181	-22.35118	0.4441913
63.53695	1807.693	17.60894	-22.05801	0.4777963
63.59089	1806.415	17.59427	-21.75374	0.511656
63.64484	1805.151	17.58892	-21.43786	0.5456569
63.69879	1803.899	17.59268	-21.10985	0.5796927
63.75274	1802.656	17.60658	-20.76917	0.6136771
63.80668	1801.418	17.63136	-20.41525	0.6475295
63.86063	1800.179	17.66476	-20.0475	0.681184
63.91458	1798.936	17.70428	-19.66533	0.7146008
63.96852	1797.688	17.74878	-19.26807	0.7477624
64.02248	1796.437	17.79454	-18.85505	0.7806832
64.07642	1795.191	17.83471	-18.42555	0.8134252
64.13037	1793.96	17.86452	-17.97885	0.8460514
64.18432	1792.752	17.88317	-17.51416	0.8786535
64.23827	1791.577	17.89257	-17.0307	0.9113367
64.29221	1790.44	17.90037	-16.52769	0.9442079
64.34616	1789.342	17.91361	-16.00431	0.9773792
64.40011	1788.28	17.93605	-15.45973	1.010967
64.45406	1787.249	17.97003	-14.8931	1.045089
64.508	1786.244	18.01358	-14.30359	1.079852
64.56195	1785.26	18.06292	-13.69032	1.115382
64.6159	1784.299	18.11567	-13.05239	1.151793
64.66985	1783.365	18.16986	-12.3889	1.189224
64.72379	1782.463	18.22253	-11.69894	1.227799
64.77774	1781.598	18.27127	-10.98159	1.267655
64.83169	1780.775	18.32194	-10.23592	1.308958
64.88564	1779.998	18.38181	-9.460994	1.351874
64.93958	1779.266	18.45408	-8.655874	1.396591
64.99353	1778.58	18.53931	-7.819624	1.443307
65.04748	1777.942	18.63718	-6.951306	1.492222
65.10143	1777.351	18.74757	-6.049989	1.54353
65.15537	1776.808	18.86844	-5.114761	1.597409
65.20932	1776.311	18.99604	-4.144703	1.653993
65.26327	1775.862	19.1246	-3.13893	1.713416
65.31721	1775.459	19.24747	-2.096562	1.77577
65.37116	1775.104	19.36069	-1.016735	1.841108
65.42511	1774.799	19.46394	0.1014121	1.90943
65.47906	1774.543	19.55928	1.258733	1.980684
65.533	1774.336	19.65166	2.456072	2.054785
65.58695	1774.177	19.74543	3.694263	2.131612
65.6409	1774.068	19.84219	4.974126	2.21101
65.69485	1774.014	19.94387	6.296471	2.292789
65.74879	1774.019	20.05248	7.662111	2.376785
65.80274	1774.085	20.16572	9.071864	2.462777
65.85669	1774.214	20.27917	10.52657	2.550556
65.91064	1774.406	20.39027	12.02708	2.639909
65.96458	1774.66	20.49719	13.57428	2.730629
66.01854	1774.974	20.59792	15.16908	2.822533
66.07249	1775.346	20.692	16.81242	2.915467
66.12643	1775.78	20.77975	18.50526	3.00931
66.18038	1776.28	20.85871	20.24855	3.103991
66.23433	1776.85	20.92688	22.04328	3.199467
66.28828	1777.496	20.9844	23.89045	3.295685
66.34222	1778.224	21.03368	25.79108	3.392658
66.39617	1779.039	21.08005	27.74621	3.490412
66.45012	1779.946	21.13194	29.75687	3.588993
66.50407	1780.953	21.19705	31.8241	3.688464
66.55801	1782.067	21.28318	33.94895	3.788916
66.61196	1783.295	21.39936	36.13244	3.89048
66.66591	1784.645	21.54985	38.37564	3.993286
66.71986	1786.122	21.7352	40.67953	4.097495
66.7738	1787.734	21.95555	43.04515	4.203279
66.82775	1789.483	22.20794	45.47348	4.310925
66.8817	1791.373	22.48721	47.96552	4.420648
66.93565	1793.402	22.78865	50.52222	4.532728
66.98959	1795.572	23.106	53.1445	4.647461
67.04354	1797.883	23.43144	55.83323	4.765148
67.09749	1800.338	23.7591	58.58923	4.886062
67.15144	1802.94	24.08586	61.41323	5.010439
67.20538	1805.695	24.41067	64.30592	5.138463
67.25933	1808.606	24.73631	67.26791	5.270256
67.31328	1811.672	25.0657	70.29974	5.405896
67.36723	1814.898	25.40137	73.4019	5.545359
67.42117	1818.285	25.74474	76.57485	5.688637
67.47512	1821.835	26.09943	79.81894	5.835625
67.52907	1825.552	26.46688	83.13445	5.986202
67.58302	1829.439	26.84583	86.52157	6.140202
67.63696	1833.5	27.23326	89.98043	6.297467
67.69091	1837.738	27.62523	93.51112	6.457682
67.74486	1842.156	28.01795	97.11361	6.620642
67.79881	1846.753	28.40782	100.7878	6.786071
67.85275	1851.528	28.79287	104.5335	6.953683
67.9067	1856.482	29.17101	108.3505	7.123116
67.96065	1861.621	29.53765	112.2386	7.2941
68.0146	1866.955	29.88672	116.1973	7.466216
68.06854	1872.494	30.21605	120.2262	7.639085
68.12249	1878.248	30.52983	124.3249	7.812329
68.17644	1884.227	30.83804	128.4929	7.985575
68.23039	1890.442	31.15213	132.7295	8.158486
68.28434	1896.902	31.48214	137.0341	8.330703
68.33829	1903.616	31.83496	141.406	8.501897
68.39223	1910.591	32.21415	145.8445	8.671738
68.44618	1917.835	32.61834	150.3489	8.839922
68.50013	1925.353	33.04125	154.9184	9.006173
68.55408	1933.148	33.47556	159.5521	9.170247
68.60802	1941.218	33.91396	164.2494	9.331943
68.66197	1949.561	34.35413	169.0093	9.491114
68.71592	1958.179	34.79732	173.8309	9.64769
68.76987	1967.071	35.2453	178.7133	9.801581
68.82381	1976.238	35.69859	183.6555	9.952809
68.87776	1985.681	36.16061	188.6565	10.10145
68.93171	1995.407	36.63762	193.715	10.2476
68.98566	2005.42	37.13507	198.8296	10.39127
69.0396	2015.722	37.65784	203.9987	10.53266
69.09355	2026.315	38.2094	209.2206	10.67177
69.1475	2037.205	38.79299	214.4932	10.80857
69.20145	2048.397	39.41201	219.8141	10.94294
69.25539	2059.9	40.06602	225.1807	11.07467
69.30934	2071.72	40.75027	230.59	11.20345
69.36329	2083.858	41.45723	236.0385	11.32888
69.41724	2096.314	42.18274	241.5226	11.45048
69.47118	2109.084	42.92561	247.0379	11.5677
69.52513	2122.169	43.68733	252.5801	11.67986
69.57908	2135.57	44.46721	258.1441	11.78625
69.63303	2149.288	45.26018	263.7243	11.88599
69.68697	2163.323	46.05945	269.3148	11.97819
69.74092	2177.677	46.85775	274.9092	12.06183
69.79487	2192.356	47.64904	280.5005	12.13579
69.84882	2207.366	48.4305	286.0811	12.19892
69.90276	2222.71	49.2055	291.6431	12.24997
69.95671	2238.392	49.98035	297.1779	12.28764
70.01066	2254.419	50.7606	302.6764	12.31061
70.06461	2270.796	51.54834	308.1291	12.31751
70.11855	2287.526	52.34026	313.526	12.30705
70.1725	2304.615	53.13018	318.8565	12.27797
70.22645	2322.064	53.9114	324.1099	12.22899
70.2804	2339.872	54.67967	329.275	12.15902
70.33434	2358.029	55.43584	334.3401	12.067
70.38829	2376.53	56.18329	339.2938	11.95199
70.44225	2395.371	56.92465	344.124	11.81316
70.49619	2414.55	57.65939	348.8188	11.64989
70.55014	2434.061	58.38432	353.3662	11.46163
70.60409	2453.901	59.09684	357.7543	11.24804
70.65804	2474.074	59.79914	361.9715	11.00893
70.71198	2494.585	60.49908	366.006	10.74424
70.76593	2515.434	61.2041	369.8467	10.45415
70.81988	2536.615	61.92043	373.4827	10.13898
70.87383	2558.125	62.65089	376.9037	9.799172
70.92777	2579.97	63.39571	380.0994	9.435652
70.98172	2602.159	64.15308	383.0606	9.049221
71.03567	2624.701	64.91941	385.7782	8.640982
71.08961	2647.602	65.6926	388.244	8.212178
71.14356	2670.864	66.47213	390.4501	7.764251
71.19751	2694.485	67.25832	392.39	7.298517
71.25146	2718.46	68.05338	394.0571	6.81658
71.3054	2742.779	68.85711	395.4459	6.320076
71.35935	2767.43	69.66576	396.5516	5.81068
71.4133	2792.393	70.47353	397.3703	5.290116
71.46725	2817.644	71.27477	397.8988	4.760124
71.52119	2843.155	72.06544	398.1348	4.222542
71.57514	2868.896	72.839	398.0766	3.679093
71.62909	2894.833	73.58484	397.7237	3.131572
71.68304	2920.93	74.28963	397.076	2.581806
71.73698	2947.152	74.9371	396.1346	2.031708
71.79093	2973.46	75.50984	394.9008	1.483591
71.84488	2999.813	75.99458	393.3772	0.9415255
71.89883	3026.169	76.38608	391.5666	0.4222454
71.95277	3052.492	76.6843	389.4728	0.2551823
72.00672	3078.744	76.88833	387.0999	0.7280104
72.06067	3104.885	76.99957	384.4529	1.245321
72.11462	3130.869	77.01974	381.5371	1.761015
72.16856	3156.646	76.94885	378.3583	2.26952
72.22251	3182.163	76.78561	374.9229	2.768485
72.27646	3207.364	76.52899	371.2377	3.256902
72.33041	3232.186	76.17702	367.3098	3.733473
72.38435	3256.572	75.72678	363.1468	4.197265
72.4383	3280.471	75.17436	358.7567	4.647369
72.49225	3303.839	74.51268	354.1476	5.082974
72.5462	3326.63	73.73872	349.3285	5.503273
72.60014	3348.812	72.85566	344.3081	5.907496
72.6541	3370.36	71.87239	339.096	6.294921
72.70805	3391.259	70.8046	333.7018	6.664833
72.76199	3411.494	69.6741	328.1355	7.016552
72.81594	3431.061	68.50257	322.4075	7.349458
72.86989	3449.961	67.31096	316.5285	7.662938
72.92384	3468.195	66.11649	310.5094	7.956441
72.97778	3485.761	64.93491	304.3617	8.229442
73.03173	3502.656	63.77937	298.0967	8.48139
73.08568	3518.877	62.6563	291.7264	8.711854
73.13963	3534.423	61.5628	285.2627	8.920184
73.19357	3549.293	60.48874	278.718	9.106022
73.24752	3563.496	59.42307	272.1045	9.26895
73.30147	3577.039	58.35697	265.4349	9.408676
73.35542	3589.939	57.28541	258.7219	9.524858
73.40936	3602.213	56.20615	251.9781	9.617353
73.46331	3613.876	55.12646	245.2164	9.686019
73.51726	3624.951	54.06136	238.4493	9.730803
73.57121	3635.461	53.03019	231.6896	9.751785
73.62515	3645.436	52.05695	224.9498	9.749188
73.6791	3654.908	51.15847	218.2423	9.723344
73.73305	3663.91	50.33627	211.5791	9.674711
73.78699	3672.473	49.58188	204.9722	9.603905
73.84094	3680.625	48.88597	198.4332	9.511642
73.89489	3688.387	48.24084	191.9732	9.39874
73.94884	3695.784	47.63659	185.6029	9.266181
74.00278	3702.843	47.06562	179.3328	9.115035
74.05673	3709.597	46.52356	173.1724	8.946446
74.11068	3716.077	46.00314	167.1308	8.761681
74.16463	3722.305	45.49931	161.2164	8.561842
74.21857	3728.301	45.01475	155.437	8.348494
74.27252	3734.081	44.55925	149.7993	8.122927
74.32647	3739.654	44.14418	144.3094	7.886553
74.38042	3745.027	43.77975	138.9727	7.640887
74.43436	3750.215	43.47166	133.7934	7.387579
74.48831	3755.231	43.22306	128.7751	7.128016
74.54226	3760.089	43.03808	123.9206	6.863901
74.59621	3764.793	42.91931	119.2316	6.596834
74.65015	3769.347	42.86313	114.7092	6.328364
74.7041	3773.755	42.86223	110.3535	6.060002
74.75805	3778.017	42.90483	106.164	5.793221
74.812	3782.137	42.97731	102.1395	5.529437
74.86595	3786.123	43.06487	98.27811	5.269989
74.9199	3789.982	43.15335	94.57729	5.016161
74.97385	3793.728	43.23078	91.034	4.769175
75.02779	3797.372	43.29118	87.64473	4.530138
75.08174	3800.924	43.3404	84.40553	4.300087
75.13569	3804.39	43.38625	81.31207	4.079951
75.18964	3807.767	43.43864	78.35969	3.870566
75.24358	3811.051	43.50502	75.54342	3.672569
75.29753	3814.242	43.59185	72.85824	3.486729
75.35148	3817.34	43.69821	70.29881	3.313436
75.40543	3820.34	43.81707	67.85973	3.15305
75.45937	3823.237	43.93619	65.53553	3.005793
75.51332	3826.036	44.03716	63.32074	2.871852
75.56727	3828.744	44.10801	61.20977	2.751098
75.62122	3831.368	44.14837	59.19722	2.643463
75.67516	3833.91	44.15961	57.27764	2.548754
75.72911	3836.371	44.13913	55.4458	2.466578
75.78306	3838.756	44.08757	53.69661	2.396439
75.83701	3841.073	44.00848	52.02515	2.337717
75.89095	3843.329	43.90349	50.4267	2.289676
75.9449	3845.53	43.77567	48.89678	2.251482
75.99885	3847.684	43.63431	47.43111	2.222215
76.0528	3849.8	43.48922	46.02566	2.200908
76.10674	3851.879	43.34283	44.67663	2.186573
76.16069	3853.922	43.19361	43.38046	2.178218
76.21464	3855.93	43.04221	42.1338	2.17486
76.26859	3857.905	42.89114	40.93356	2.175552
76.32253	3859.845	42.74286	39.77677	2.179404
76.37648	3861.749	42.59866	38.66075	2.185636
76.43043	3863.619	42.45587	37.58287	2.193554
76.48438	3865.451	42.31202	36.54063	2.202599
76.53832	3867.235	42.16256	35.53162	2.212323
76.59227	3868.964	41.9996	34.55354	2.222389
76.64622	3870.634	41.81973	33.60416	2.232508
76.70016	3872.25	41.62553	32.68135	2.242493
76.75411	3873.816	41.42308	31.78313	2.252213
76.80806	3875.336	41.21815	30.90762	2.261606
76.86201	3876.813	41.01979	30.0531	2.270659
76.91595	3878.251	40.83234	29.21802	2.279427
76.9699	3879.655	40.65282	28.401	2.288037
77.02385	3881.029	40.47632	27.60082	2.296679
77.0778	3882.379	40.29553	26.81646	2.305618
77.13175	3883.705	40.10838	26.04708	2.315186
77.1857	3885	39.91732	25.29204	2.325769
77.23965	3886.254	39.72482	24.55084	2.337804
77.29359	3887.457	39.52933	23.82312	2.351766
77.34754	3888.602	39.32963	23.10865	2.368171
77.40149	3889.687	39.12515	22.40731	2.387564
77.45544	3890.711	38.91177	21.71907	2.41051
77.50938	3891.681	38.68518	21.04397	2.437557
77.56333	3892.606	38.44755	20.3821	2.469217
77.61728	3893.494	38.20605	19.73363	2.505946
77.67123	3894.353	37.96811	19.09876	2.548101
77.72517	3895.193	37.74334	18.47776	2.595914
77.77912	3896.022	37.54408	17.87093	2.649457
77.83307	3896.848	37.37884	17.27859	2.708647
77.88702	3897.677	37.25186	16.7011	2.77323
77.94096	3898.519	37.16604	16.13881	2.842813
77.99491	3899.38	37.11983	15.59206	2.916882
78.04886	3900.263	37.10739	15.06117	2.994839
78.10281	3901.158	37.12139	14.54648	3.076035
78.15675	3902.053	37.15199	14.04831	3.159766
78.2107	3902.933	37.18784	13.56696	3.245281
78.26465	3903.786	37.22194	13.10269	3.331777
78.3186	3904.608	37.25299	12.65567	3.418433
78.37254	3905.394	37.28198	12.22594	3.504432
78.42649	3906.143	37.31347	11.81343	3.588989
78.48044	3906.85	37.3539	11.41793	3.671368
78.53439	3907.507	37.40801	11.03908	3.750885
78.58833	3908.116	37.48068	10.6764	3.82692
78.64228	3908.679	37.57235	10.32928	3.898856
78.69623	3909.198	37.67707	9.997021	3.966161
78.75018	3909.667	37.78437	9.678829	4.028359
78.80412	3910.078	37.88726	9.373879	4.085057
78.85807	3910.424	37.98011	9.081319	4.13593
78.91202	3910.699	38.05722	8.800348	4.180745
78.96597	3910.898	38.11228	8.530235	4.219345
79.01991	3911.013	38.13786	8.270354	4.251661
79.07386	3911.048	38.12515	8.020215	4.277712
79.12781	3911.009	38.07233	7.779476	4.297611
79.18176	3910.905	37.98576	7.547959	4.311548
79.2357	3910.746	37.8772	7.325643	4.319772
79.28966	3910.541	37.75983	7.112666	4.322583
79.34361	3910.305	37.64739	6.909317	4.320316
79.39755	3910.059	37.55484	6.716003	4.313337
79.4515	3909.825	37.49331	6.533238	4.302013
79.50545	3909.629	37.46406	6.361611	4.286704
79.55939	3909.493	37.45851	6.201771	4.267745
79.61334	3909.431	37.4658	6.05442	4.245459
79.66729	3909.45	37.47888	5.920324	4.220156
79.72124	3909.552	37.49569	5.800274	4.192129
79.77518	3909.732	37.51502	5.695076	4.16166
79.82913	3909.973	37.53749	5.60552	4.12901
79.88308	3910.26	37.56966	5.532369	4.094409
79.93703	3910.583	37.61989	5.4763	4.058053
79.99097	3910.931	37.6942	5.437923	4.020126
80.04492	3911.3	37.79921	5.417733	3.980798
80.09887	3911.686	37.94123	5.41612	3.940229
80.15282	3912.086	38.12336	5.433328	3.89861
80.20676	3912.502	38.34422	5.469501	3.856065
80.26071	3912.942	38.59977	5.524602	3.812693
80.31466	3913.413	38.88644	5.598414	3.768548
80.36861	3913.922	39.19403	5.690499	3.723652
80.42255	3914.471	39.50872	5.800213	3.678009
80.4765	3915.053	39.81796	5.926681	3.631601
80.53045	3915.647	40.11636	6.06882	3.584378
80.5844	3916.23	40.39957	6.225334	3.536261
80.63834	3916.781	40.66229	6.39473	3.487148
80.69229	3917.281	40.9011	6.575314	3.43692
80.74624	3917.72	41.11297	6.76522	3.38545
80.80019	3918.09	41.29751	6.962389	3.332615
80.85413	3918.382	41.46145	7.164637	3.278294
80.90808	3918.594	41.61216	7.369689	3.222387
80.96203	3918.731	41.75398	7.575241	3.164817
81.01598	3918.811	41.8859	7.778965	3.105559
81.06992	3918.851	42.00385	7.978564	3.044649
81.12387	3918.871	42.1017	8.171767	2.982194
81.17782	3918.887	42.1736	8.356382	2.918382
81.23177	3918.915	42.21362	8.53033	2.853479
81.28571	3918.969	42.21711	8.691679	2.78782
81.33966	3919.064	42.1841	8.83869	2.721782
81.39361	3919.203	42.12349	8.969832	2.655764
81.44756	3919.392	42.04671	9.083807	2.590168
81.5015	3919.633	41.96063	9.179557	2.525388
81.55546	3919.928	41.86894	9.256284	2.461799
81.60941	3920.271	41.77577	9.313451	2.399776
81.66335	3920.661	41.68443	9.350789	2.339702
81.7173	3921.102	41.59691	9.368259	2.281982
81.77125	3921.6	41.51785	9.366028	2.227043
81.8252	3922.161	41.45349	9.344403	2.175316
81.87914	3922.796	41.40646	9.303823	2.12722
81.93309	3923.512	41.37695	9.244792	2.083148
81.98704	3924.31	41.36194	9.167874	2.043478
82.04099	3925.188	41.35675	9.073652	2.008564
82.09493	3926.135	41.35862	8.962744	1.978747
82.14888	3927.144	41.3656	8.835735	1.954318
82.20283	3928.201	41.37894	8.6932	1.935502
82.25677	3929.298	41.40388	8.535647	1.922442
82.31072	3930.421	41.44419	8.363532	1.91521
82.36467	3931.562	41.50268	8.177216	1.913827
82.41862	3932.709	41.57768	7.977001	1.918219
82.47256	3933.854	41.66773	7.763051	1.928299
82.52651	3934.976	41.77243	7.535435	1.943917
82.58046	3936.058	41.88974	7.294097	1.964873
82.63441	3937.085	42.01748	7.038865	1.990923
82.68835	3938.05	42.15171	6.769427	2.021781
82.7423	3938.955	42.28029	6.485323	2.057136
82.79625	3939.805	42.38849	6.185933	2.096638
82.8502	3940.598	42.46737	5.8705	2.139908
82.90414	3941.332	42.51333	5.538148	2.186545
82.95809	3942.007	42.52456	5.187873	2.236098
83.01204	3942.621	42.50569	4.818614	2.288101
83.06599	3943.177	42.47156	4.429252	2.342042
83.11993	3943.675	42.4378	4.018599	2.397428
83.17388	3944.113	42.41315	3.585469	2.453732
83.22783	3944.49	42.40246	3.128706	2.510478
83.28178	3944.803	42.40428	2.647191	2.567175
83.33572	3945.045	42.41526	2.139916	2.623338
83.38967	3945.21	42.43238	1.606023	2.678471
83.44362	3945.299	42.45109	1.044818	2.732066
83.49757	3945.32	42.46611	0.455795	2.783594
83.55151	3945.282	42.47526	-0.1613421	2.83252
83.60546	3945.186	42.4778	-0.8066388	2.878316
83.65941	3945.032	42.46784	-1.479894	2.92047
83.71336	3944.815	42.43802	-2.180673	2.958503
83.76731	3944.531	42.38803	-2.90835	2.991968
83.82126	3944.175	42.32386	-3.662122	3.020445
83.87521	3943.751	42.25714	-4.441034	3.043556
83.92915	3943.269	42.20466	-5.243984	3.060988
83.9831	3942.743	42.18089	-6.069733	3.072515
84.03705	3942.187	42.1942	-6.916938	3.077982
84.091	3941.608	42.24082	-7.784121	3.077335
84.14494	3941.017	42.31294	-8.669723	3.070595
84.19889	3940.428	42.40496	-9.572131	3.057868
84.25284	3939.853	42.51545	-10.48973	3.039345
84.30679	3939.293	42.64349	-11.42087	3.015337
84.36073	3938.744	42.78233	-12.36395	2.986239
84.41468	3938.203	42.91888	-13.31733	2.952544
84.46863	3937.662	43.03519	-14.27938	2.914836
84.52258	3937.115	43.1189	-15.24848	2.873779
84.57652	3936.558	43.16596	-16.22303	2.830108
84.63047	3935.983	43.17944	-17.20145	2.784586
84.68442	3935.384	43.16674	-18.18226	2.738011
84.73837	3934.753	43.13895	-19.16405	2.69118
84.79231	3934.081	43.10915	-20.1455	2.644883
84.84626	3933.361	43.08839	-21.12536	2.599895
84.90021	3932.585	43.08142	-22.10254	2.55697
84.95415	3931.749	43.09026	-23.07605	2.516827
85.0081	3930.853	43.11515	-24.04508	2.480137
85.06205	3929.897	43.15532	-25.00893	2.447508
85.116	3928.877	43.20726	-25.96709	2.419479
85.16994	3927.785	43.26575	-26.91916	2.396528
85.22389	3926.615	43.32314	-27.8649	2.379058
85.27784	3925.355	43.37311	-28.80417	2.367381
85.33179	3923.993	43.41424	-29.73692	2.361717
85.38573	3922.513	43.44645	-30.66313	2.362173
85.43968	3920.906	43.47277	-31.58284	2.368756
85.49363	3919.167	43.49821	-32.49606	2.381365
85.54758	3917.293	43.5302	-33.40282	2.399819
85.60152	3915.293	43.57978	-34.30311	2.423881
85.65547	3913.178	43.65615	-35.19692	2.453253
85.70942	3910.967	43.76946	-36.08421	2.487576
85.76337	3908.679	43.92318	-36.96495	2.52642
85.81731	3906.332	44.11009	-37.83907	2.569279
85.87126	3903.942	44.31391	-38.70651	2.615587
85.92521	3901.519	44.51883	-39.56712	2.664713
85.97916	3899.063	44.71307	-40.42069	2.715964
86.03311	3896.566	44.88931	-41.26698	2.768568
86.08706	3894.021	45.04041	-42.10567	2.821702
86.14101	3891.422	45.15712	-42.93636	2.874492
86.19495	3888.772	45.23608	-43.75862	2.926071
86.2489	3886.069	45.28428	-44.57199	2.975582
86.30285	3883.311	45.31432	-45.37602	3.022218
86.3568	3880.491	45.33917	-46.17025	3.06525
86.41074	3877.604	45.36184	-46.95419	3.104054
86.46469	3874.647	45.38252	-47.72741	3.138109
86.51864	3871.63	45.40334	-48.48943	3.16704
86.57259	3868.563	45.42582	-49.23978	3.190578
86.62653	3865.467	45.44783	-49.97801	3.208583
86.68048	3862.358	45.46577	-50.70373	3.22101
86.73443	3859.248	45.47846	-51.41656	3.227915
86.78838	3856.141	45.4846	-52.11615	3.229455
86.84232	3853.031	45.48156	-52.80217	3.225885
86.89627	3849.908	45.47089	-53.47429	3.217586
86.95022	3846.769	45.45918	-54.13219	3.204998
87.00417	3843.614	45.45442	-54.77563	3.188637
87.05811	3840.448	45.46274	-55.40442	3.169073
87.11206	3837.277	45.48839	-56.01845	3.146919
87.16601	3834.1	45.53346	-56.61768	3.12281
87.21996	3830.917	45.59882	-57.20216	3.097405
87.2739	3827.728	45.68244	-57.772	3.071366
87.32785	3824.541	45.78151	-58.32742	3.045335
87.3818	3821.369	45.89299	-58.86869	3.019915
87.43575	3818.221	46.01077	-59.39619	2.995655
87.48969	3815.093	46.12875	-59.91035	2.973034
87.54364	3811.973	46.24347	-60.41168	2.952498
87.59759	3808.842	46.35472	-60.9007	2.93442
87.65154	3805.68	46.46892	-61.37796	2.919142
87.70548	3802.472	46.59592	-61.844	2.906915
87.75943	3799.213	46.74456	-62.29939	2.897927
87.81338	3795.903	46.91751	-62.74465	2.892279
87.86732	3792.548	47.11096	-63.18027	2.889979
87.92127	3789.158	47.31296	-63.6067	2.890972
87.97522	3785.74	47.50954	-64.02431	2.895089
88.02917	3782.304	47.6922	-64.43344	2.90207
88.08311	3778.861	47.85462	-64.83436	2.911545
88.13706	3775.42	47.9936	-65.2273	2.92306
88.19102	3771.988	48.10866	-65.61248	2.936082
88.24496	3768.562	48.20225	-65.99003	2.950029
88.29891	3765.128	48.28154	-66.36009	2.964287
88.35286	3761.666	48.35154	-66.72272	2.97824
88.40681	3758.157	48.41607	-67.07797	2.991294
88.46075	3754.589	48.48046	-67.42584	3.002879
88.5147	3750.958	48.54747	-67.7663	3.012445
88.56865	3747.263	48.61516	-68.09934	3.019509
88.6226	3743.512	48.6773	-68.42494	3.023619
88.67654	3739.715	48.72952	-68.74311	3.02441
88.73049	3735.881	48.76907	-69.05387	3.02159
88.78444	3732.021	48.78878	-69.35727	3.014977
88.83839	3728.15	48.7779	-69.65334	3.004487
88.89233	3724.269	48.7313	-69.94212	2.990148
88.94628	3720.381	48.65161	-70.22361	2.972069
89.00023	3716.486	48.54651	-70.49786	2.950423
89.05418	3712.589	48.42497	-70.76485	2.925456
89.10812	3708.687	48.2983	-71.02461	2.897483
89.16207	3704.772	48.17657	-71.27711	2.866877
89.21602	3700.823	48.06841	-71.52232	2.834052
89.26997	3696.829	47.98357	-71.76012	2.799487
89.32391	3692.773	47.93872	-71.99043	2.763695
89.37786	3688.657	47.94524	-72.21317	2.727238
89.43181	3684.482	47.99904	-72.42832	2.690705
89.48576	3680.261	48.08385	-72.63589	2.65471
89.5397	3676.008	48.18089	-72.83598	2.619865
89.59365	3671.742	48.27408	-73.02873	2.586773
89.6476	3667.479	48.3536	-73.21432	2.555982
89.70155	3663.233	48.41487	-73.39295	2.528003
89.75549	3659.013	48.45994	-73.56483	2.50326
89.80944	3654.825	48.4997	-73.73022	2.482092
89.86339	3650.665	48.54612	-73.88935	2.464769
89.91734	3646.521	48.60942	-74.0425	2.451456
89.97128	3642.374	48.69589	-74.1899	2.442237
90.02523	3638.213	48.80754	-74.33177	2.437115
90.07918	3634.03	48.94241	-74.46831	2.436024
90.13313	3629.835	49.09877	-74.59969	2.43887
90.18707	3625.636	49.27298	-74.72608	2.445497
90.24102	3621.446	49.46472	-74.84771	2.455736
90.29497	3617.268	49.674	-74.96478	2.469402
90.34892	3613.11	49.8991	-75.07755	2.486297
90.40287	3608.971	50.13531	-75.18629	2.506205
90.45682	3604.857	50.37537	-75.29132	2.528895
90.51077	3600.775	50.61074	-75.39295	2.554085
90.56471	3596.729	50.83592	-75.49158	2.58145
90.61866	3592.721	51.05085	-75.58758	2.610603
90.67261	3588.75	51.25813	-75.68132	2.641103
90.72655	3584.806	51.4603	-75.77317	2.672477
90.7805	3580.884	51.66061	-75.86345	2.704221
90.83445	3576.975	51.86205	-75.95241	2.735819
90.8884	3573.069	52.06607	-76.04031	2.766749
90.94234	3569.158	52.27157	-76.12738	2.796496
90.99629	3565.24	52.47717	-76.21386	2.824568
91.05024	3561.314	52.68102	-76.29997	2.850497
91.10419	3557.379	52.88351	-76.38594	2.873863
91.15813	3553.435	53.08028	-76.47196	2.894271
91.21208	3549.485	53.26152	-76.55823	2.911378
91.26603	3545.527	53.42301	-76.64489	2.924862
91.31998	3541.558	53.5686	-76.7321	2.934464
91.37392	3537.574	53.70457	-76.81995	2.939952
91.42787	3533.573	53.83823	-76.90853	2.941181
91.48182	3529.553	53.97348	-76.99794	2.93804
91.53577	3525.514	54.11055	-77.08824	2.93047
91.58971	3521.453	54.24903	-77.17952	2.918463
91.64366	3517.368	54.38876	-77.27187	2.902052
91.69761	3513.258	54.52575	-77.36536	2.881338
91.75156	3509.125	54.65234	-77.46006	2.856473
91.8055	3504.976	54.76032	-77.55602	2.827674
91.85945	3500.818	54.8453	-77.65328	2.795182
91.9134	3496.654	54.90796	-77.75188	2.7593
91.96735	3492.481	54.95561	-77.85184	2.720344
92.02129	3488.294	54.99564	-77.95309	2.678684
92.07524	3484.094	55.03421	-78.05556	2.634712
92.12919	3479.885	55.0727	-78.15908	2.588821
92.18314	3475.663	55.11219	-78.26349	2.541429
92.23708	3471.429	55.15265	-78.36855	2.492956
92.29103	3467.18	55.19094	-78.47401	2.443831
92.34498	3462.919	55.22528	-78.57957	2.394466
92.39893	3458.64	55.25261	-78.68488	2.345316
92.45287	3454.343	55.26952	-78.76209	2.290901
92.50682	3450.023	55.27357	-78.83353	2.235246
92.56077	3445.684	55.26578	-78.90105	2.17918
92.61472	3441.324	55.24798	-78.96633	2.123332
92.66867	3436.944	55.22202	-79.03057	2.068089
92.72262	3432.542	55.19244	-79.09451	2.013626
92.77657	3428.12	55.16618	-79.15855	1.959989
92.83051	3423.675	55.14598	-79.22287	1.907151
92.88446	3419.207	55.13186	-79.28752	1.855032
92.93841	3414.713	55.12581	-79.35246	1.803536
92.99236	3410.197	55.13113	-79.41763	1.752565
93.0463	3405.658	55.15197	-79.48292	1.702004
93.10025	3401.104	55.19212	-79.54824	1.651768
93.1542	3396.546	55.25208	-79.61349	1.601747
93.20815	3391.998	55.32925	-79.67859	1.551865
93.26209	3387.473	55.42197	-79.74342	1.502032
93.31604	3382.984	55.52843	-79.80791	1.452177
93.36999	3378.539	55.64624	-79.87196	1.402232
93.42393	3374.142	55.76897	-79.93552	1.35213
93.47788	3369.786	55.89098	-79.9985	1.301809
93.53183	3365.462	56.01059	-80.06084	1.251204
93.58578	3361.157	56.12831	-80.12249	1.200279
93.63972	3356.863	56.24582	-80.18337	1.148976
93.69367	3352.574	56.36162	-80.24344	1.097252
93.74762	3348.284	56.4724	-80.30265	1.045077
93.80157	3343.985	56.57442	-80.36095	0.9924106
93.85551	3339.68	56.66316	-80.4183	0.9392338
93.90946	3335.374	56.73375	-80.47465	0.8855129
93.96341	3331.073	56.77962	-80.52998	0.8312403
94.01736	3326.775	56.79707	-80.58425	0.7764044
94.0713	3322.433	56.73511	-80.63743	0.7209948
94.12525	3318.094	56.66128	-80.6895	0.6650172
94.1792	3313.756	56.58626	-80.74044	0.6084873
94.23315	3309.418	56.51265	-80.79024	0.5514369
94.28709	3305.077	56.44006	-80.83887	0.4939203
94.34104	3300.733	56.36806	-80.88634	0.436014
94.39499	3296.384	56.29638	-80.93265	0.3778707
94.44894	3292.028	56.22466	-80.97778	0.3197335
94.50288	3287.666	56.15259	-81.02174	0.2620687
94.55683	3283.297	56.0798	-81.06453	0.2058808
94.61078	3278.923	56.00591	-81.10617	0.1535836
94.66473	3274.543	55.93036	-81.14667	0.1119071
94.71867	3270.159	55.85298	-81.18604	0.09708636
94.77262	3265.771	55.77349	-81.2243	0.1205175
94.82658	3261.38	55.6913	-81.26147	0.1674495
94.88052	3256.986	55.60638	-81.29757	0.2240183
94.93447	3252.59	55.51902	-81.33263	0.2848997
94.98842	3248.19	55.42941	-81.36668	0.3481147
