T[Â°C]	350nm [counts / mm]	S.D.	First derivative	S.D. of first derivative
20.0012	3094.302	35.3146	-44.2832	2.727135
20.05515	3091.898	35.24997	-44.27076	2.667681
20.1091	3089.497	35.18193	-44.25821	2.608418
20.16305	3087.099	35.11086	-44.24553	2.549358
20.21699	3084.702	35.0373	-44.23272	2.490512
20.27094	3082.308	34.96146	-44.2198	2.431894
20.32489	3079.915	34.88324	-44.20676	2.373521
20.37884	3077.523	34.80215	-44.19359	2.315413
20.43279	3075.131	34.71803	-44.18031	2.257582
20.48673	3072.738	34.63066	-44.16692	2.200051
20.54068	3070.344	34.53953	-44.15342	2.142838
20.59463	3067.948	34.44436	-44.13982	2.085968
20.64857	3065.551	34.34445	-44.12611	2.02946
20.70252	3063.153	34.23894	-44.11232	1.973338
20.75647	3060.753	34.12688	-44.09844	1.917625
20.81042	3058.354	34.00648	-44.08448	1.862349
20.86437	3055.96	33.87519	-44.07045	1.807529
20.91831	3053.577	33.72636	-44.05637	1.753196
20.97226	3051.218	33.55273	-44.04223	1.699372
21.02621	3048.879	33.32397	-44.02805	1.646087
21.08016	3046.549	33.11267	-44.01385	1.593365
21.1341	3044.223	32.92262	-43.99963	1.541232
21.18805	3041.89	32.74952	-43.9854	1.489714
21.242	3039.54	32.58822	-43.97118	1.438827
21.29595	3037.164	32.43349	-43.95698	1.388594
21.34989	3034.759	32.28361	-43.94281	1.339033
21.40384	3032.329	32.14014	-43.92868	1.290151
21.45779	3029.886	32.00441	-43.9146	1.241969
21.51174	3027.44	31.87899	-43.90059	1.194493
21.56569	3025.001	31.76734	-43.88665	1.147729
21.61963	3022.577	31.67435	-43.87281	1.101685
21.67358	3020.173	31.60504	-43.85908	1.056361
21.72753	3017.787	31.56194	-43.84547	1.011754
21.78148	3015.414	31.54281	-43.83201	0.9678599
21.83542	3013.048	31.54254	-43.8187	0.9246603
21.88937	3010.683	31.55731	-43.80556	0.8821419
21.94332	3008.313	31.58792	-43.79259	0.8402704
21.99727	3005.936	31.63432	-43.77982	0.7990084
22.05121	3003.551	31.69131	-43.76723	0.7583025
22.10516	3001.156	31.75027	-43.75484	0.7180883
22.15911	2998.752	31.80338	-43.74262	0.6782843
22.21306	2996.337	31.8473	-43.73056	0.6387854
22.267	2993.919	31.88115	-43.71862	0.5994678
22.32095	2991.507	31.90721	-43.70674	0.5601763
22.3749	2989.109	31.93066	-43.69482	0.5207317
22.42885	2986.73	31.95979	-43.68272	0.4809195
22.48279	2984.372	31.99871	-43.67027	0.4404822
22.53674	2982.036	32.04933	-43.65724	0.3991128
22.59069	2979.721	32.1142	-43.6434	0.3564736
22.64464	2977.422	32.19419	-43.63308	0.3352111
22.69859	2975.134	32.2875	-43.62256	0.3148349
22.75253	2972.848	32.3881	-43.61177	0.2956024
22.80648	2970.561	32.49125	-43.60064	0.2778781
22.86043	2968.264	32.59166	-43.5891	0.2621281
22.91438	2965.953	32.68337	-43.5771	0.2489101
22.96832	2963.627	32.76214	-43.56456	0.2388059
23.02227	2961.292	32.82903	-43.5514	0.2323559
23.07622	2958.957	32.88805	-43.53754	0.2299397
23.13017	2956.63	32.94363	-43.52292	0.2316929
23.18411	2954.315	33.00183	-43.50749	0.2374545
23.23806	2952.016	33.06602	-43.49121	0.246803
23.29201	2949.727	33.13848	-43.47407	0.2591334
23.34596	2947.443	33.22076	-43.45606	0.2737582
23.3999	2945.157	33.31206	-43.43723	0.289986
23.45385	2942.865	33.40277	-43.41763	0.3071657
23.5078	2940.563	33.48113	-43.39737	0.3247222
23.56175	2938.253	33.5369	-43.37654	0.3421734
23.6157	2935.938	33.5632	-43.35526	0.3591345
23.66964	2933.615	33.55989	-43.33364	0.3753105
23.72359	2931.284	33.52599	-43.31181	0.3904928
23.77754	2928.943	33.46146	-43.28985	0.4045652
23.83149	2926.592	33.36604	-43.26791	0.4174678
23.88543	2924.231	33.24065	-43.24615	0.4292042
23.93938	2921.858	33.09076	-43.22475	0.439817
23.99333	2919.474	32.92495	-43.2039	0.4493918
24.04728	2917.082	32.74973	-43.18379	0.4580571
24.10122	2914.683	32.56771	-43.1646	0.4659701
24.15517	2912.283	32.37973	-43.14649	0.4732896
24.20912	2909.883	32.1892	-43.12957	0.4801748
24.26307	2907.489	31.99833	-43.11392	0.4867668
24.31701	2905.108	31.81005	-43.09956	0.4931856
24.37096	2902.743	31.6288	-43.08648	0.4995277
24.42491	2900.392	31.45956	-43.07464	0.5058565
24.47886	2898.049	31.3056	-43.06397	0.5122299
24.5328	2895.709	31.17009	-43.05439	0.5186782
24.58675	2893.369	31.05763	-43.04576	0.525216
24.6407	2891.023	30.97289	-43.03795	0.5318389
24.69465	2888.673	30.91662	-43.0308	0.5385607
24.7486	2886.32	30.88445	-43.02413	0.5454125
24.80254	2883.968	30.87069	-43.01778	0.5524507
24.85649	2881.622	30.87281	-43.01159	0.5597519
24.91044	2879.283	30.8887	-43.00533	0.5673992
24.96439	2876.951	30.91594	-42.9988	0.5754744
25.01833	2874.624	30.95084	-42.99175	0.5840369
25.07228	2872.301	30.99239	-42.98394	0.5931222
25.12623	2869.988	31.04029	-42.97512	0.6027421
25.18018	2867.687	31.09125	-42.96507	0.6128783
25.23412	2865.4	31.14039	-42.95358	0.6234837
25.28807	2863.121	31.18267	-42.94049	0.6344857
25.34202	2860.845	31.21779	-42.92567	0.645792
25.39597	2858.569	31.2466	-42.90898	0.6572941
25.44991	2856.294	31.26944	-42.89035	0.6688705
25.50386	2854.023	31.29015	-42.86971	0.6804
25.55781	2851.763	31.31284	-42.84706	0.6917469
25.61176	2849.513	31.34063	-42.82239	0.7027759
25.6657	2847.269	31.37118	-42.79572	0.7133491
25.71965	2845.029	31.3992	-42.76709	0.723337
25.7736	2842.792	31.41939	-42.73658	0.7326384
25.82755	2840.555	31.42488	-42.70431	0.7411875
25.8815	2838.316	31.41344	-42.67044	0.7489619
25.93544	2836.07	31.38815	-42.6352	0.7559809
25.98939	2833.815	31.35728	-42.59883	0.7622963
26.04334	2831.546	31.32916	-42.56164	0.7679874
26.09729	2829.26	31.30627	-42.52394	0.7731676
26.15123	2826.959	31.2917	-42.48604	0.777953
26.20518	2824.641	31.28918	-42.44827	0.7824453
26.25913	2822.314	31.30333	-42.41089	0.7867392
26.31308	2819.983	31.33558	-42.37418	0.7909004
26.36702	2817.651	31.3854	-42.33834	0.7949703
26.42097	2815.319	31.44922	-42.30357	0.7989785
26.47492	2812.985	31.52126	-42.27002	0.8029431
26.52887	2810.649	31.59343	-42.23779	0.8068635
26.58282	2808.309	31.65599	-42.20698	0.8107148
26.63676	2805.96	31.70001	-42.17763	0.8144451
26.69071	2803.599	31.71865	-42.14977	0.8179895
26.74466	2801.225	31.70856	-42.12343	0.8212861
26.7986	2798.842	31.66875	-42.09859	0.8242871
26.85255	2796.457	31.59849	-42.07527	0.826978
26.9065	2794.077	31.49714	-42.0534	0.8293519
26.96045	2791.707	31.36425	-42.03291	0.8314264
27.0144	2789.349	31.19871	-42.01369	0.8332229
27.06834	2787.009	31.00311	-41.99561	0.8347735
27.12229	2784.691	30.78352	-41.97853	0.8361138
27.17624	2782.403	30.54994	-41.96228	0.8372958
27.23019	2780.144	30.31097	-41.94675	0.8383705
27.28413	2777.912	30.07253	-41.93179	0.8393944
27.33808	2775.696	29.83861	-41.91726	0.8404126
27.39203	2773.49	29.60891	-41.90303	0.8414661
27.44598	2771.292	29.38305	-41.88896	0.8425784
27.49993	2769.1	29.16428	-41.87489	0.8437483
27.55387	2766.917	28.96035	-41.86069	0.8449471
27.60782	2764.741	28.77949	-41.84628	0.8461289
27.66177	2762.574	28.62767	-41.83157	0.8472378
27.71572	2760.417	28.5077	-41.81651	0.8482099
27.76966	2758.267	28.41754	-41.80108	0.8489727
27.82361	2756.121	28.35262	-41.78525	0.849443
27.87756	2753.976	28.30775	-41.76904	0.8495491
27.93151	2751.831	28.28099	-41.7525	0.8492311
27.98545	2749.687	28.27057	-41.73572	0.8484462
28.0394	2747.536	28.27415	-41.7188	0.8471615
28.09335	2745.375	28.29086	-41.70187	0.8453587
28.1473	2743.198	28.32123	-41.68507	0.8430207
28.20124	2741.001	28.36577	-41.66851	0.8401242
28.25519	2738.785	28.42223	-41.65233	0.8366343
28.30914	2736.553	28.48764	-41.63662	0.8325229
28.36309	2734.305	28.55783	-41.62148	0.8277503
28.41703	2732.041	28.62759	-41.60697	0.8223011
28.47098	2729.762	28.69361	-41.59312	0.8161789
28.52493	2727.471	28.75346	-41.57996	0.8094181
28.57888	2725.176	28.80622	-41.56752	0.8020573
28.63283	2722.88	28.84941	-41.55582	0.7941395
28.68677	2720.584	28.88154	-41.54492	0.7857023
28.74072	2718.288	28.90504	-41.53485	0.7768002
28.79467	2715.991	28.92385	-41.52565	0.7674966
28.84862	2713.701	28.9394	-41.51736	0.7578538
28.90256	2711.421	28.95403	-41.50999	0.7479343
28.95651	2709.154	28.96694	-41.50351	0.7377955
29.01046	2706.899	28.97592	-41.49787	0.7275121
29.06441	2704.652	28.97826	-41.493	0.7171539
29.11835	2702.413	28.97229	-41.48882	0.7067974
29.1723	2700.183	28.96131	-41.48521	0.6965304
29.22625	2697.959	28.94985	-41.48208	0.6864349
29.2802	2695.738	28.94225	-41.4793	0.6765994
29.33414	2693.511	28.9394	-41.47676	0.6670953
29.38809	2691.275	28.93596	-41.47434	0.6579903
29.44204	2689.031	28.9298	-41.47188	0.64934
29.49599	2686.782	28.92073	-41.46925	0.641214
29.54993	2684.53	28.90739	-41.46629	0.6336753
29.60388	2682.279	28.89134	-41.46288	0.6268068
29.65783	2680.031	28.87609	-41.45893	0.6206982
29.71178	2677.791	28.86271	-41.45437	0.6154426
29.76573	2675.555	28.84877	-41.44913	0.6111243
29.81967	2673.318	28.82788	-41.44319	0.6077929
29.87362	2671.073	28.79533	-41.4365	0.6054766
29.92757	2668.817	28.74589	-41.42908	0.6041658
29.98152	2666.552	28.67516	-41.42095	0.6038463
30.03546	2664.278	28.5796	-41.41215	0.6044828
30.08941	2661.997	28.45994	-41.40275	0.606023
30.14336	2659.705	28.31904	-41.39279	0.6083871
30.19731	2657.403	28.15923	-41.38232	0.61146
30.25125	2655.094	27.98587	-41.37137	0.6150861
30.3052	2652.786	27.80953	-41.35996	0.6190709
30.35915	2650.488	27.64235	-41.34813	0.6232063
30.4131	2648.208	27.49389	-41.33589	0.6272736
30.46704	2645.948	27.36729	-41.32326	0.6310704
30.52099	2643.709	27.25985	-41.31026	0.6344038
30.57494	2641.493	27.16619	-41.29691	0.637099
30.62889	2639.3	27.07753	-41.28326	0.6390173
30.68283	2637.125	26.98804	-41.26934	0.6400701
30.73678	2634.963	26.8972	-41.25519	0.6402046
30.79073	2632.808	26.8077	-41.24086	0.6394046
30.84468	2630.656	26.72491	-41.2264	0.6376795
30.89863	2628.506	26.65495	-41.21183	0.6350574
30.95257	2626.354	26.60079	-41.19719	0.6315687
31.00652	2624.199	26.56117	-41.18249	0.6272475
31.06047	2622.04	26.53233	-41.16778	0.6221309
31.11442	2619.874	26.50998	-41.15306	0.6162539
31.16836	2617.702	26.49568	-41.13835	0.6096416
31.22231	2615.524	26.49447	-41.12365	0.6023098
31.27626	2613.342	26.51073	-41.10893	0.5942739
31.33021	2611.152	26.54491	-41.09417	0.5855493
31.38416	2608.951	26.59738	-41.07934	0.5761467
31.4381	2606.74	26.66767	-41.06438	0.5660841
31.49205	2604.518	26.75327	-41.04924	0.5553885
31.546	2602.289	26.84889	-41.03383	0.544112
31.59995	2600.055	26.94756	-41.01807	0.5323337
31.65389	2597.82	27.04228	-41.00188	0.5201681
31.70784	2595.584	27.12486	-40.98522	0.5077761
31.76179	2593.348	27.18964	-40.96802	0.4953541
31.81573	2591.112	27.2341	-40.95022	0.4831159
31.86968	2588.876	27.25617	-40.93177	0.4712807
31.92363	2586.645	27.2582	-40.91265	0.460071
31.97758	2584.418	27.24381	-40.89285	0.4497028
32.03152	2582.199	27.21635	-40.87235	0.440389
32.08547	2579.989	27.18157	-40.85118	0.4323205
32.13942	2577.787	27.14193	-40.82933	0.4256903
32.19337	2575.587	27.09775	-40.80684	0.4206688
32.24732	2573.383	27.0459	-40.7837	0.4174219
32.30127	2571.168	26.98546	-40.75991	0.4160952
32.35521	2568.941	26.92056	-40.73549	0.4168087
32.40916	2566.706	26.85723	-40.71045	0.4196734
32.46311	2564.469	26.80253	-40.6848	0.424766
32.51706	2562.234	26.76026	-40.65857	0.4321326
32.571	2560.006	26.72952	-40.63178	0.4417673
32.62495	2557.789	26.70709	-40.60442	0.4536177
32.6789	2555.588	26.68928	-40.57647	0.4675705
32.73285	2553.402	26.67104	-40.54792	0.4834412
32.78679	2551.229	26.64838	-40.51874	0.5010015
32.84074	2549.058	26.62153	-40.48891	0.5199932
32.89469	2546.883	26.59421	-40.45841	0.540147
32.94864	2544.697	26.57032	-40.42726	0.5611886
33.00258	2542.5	26.55315	-40.39546	0.5828506
33.05653	2540.293	26.54778	-40.36306	0.6048622
33.11048	2538.077	26.55871	-40.33014	0.6269691
33.16442	2535.851	26.58405	-40.29675	0.6489185
33.21837	2533.619	26.61549	-40.26299	0.6704777
33.27232	2531.387	26.64116	-40.22896	0.6914077
33.32627	2529.158	26.64919	-40.19479	0.7114779
33.38022	2526.933	26.63285	-40.16059	0.7304412
33.43417	2524.716	26.5914	-40.12651	0.7480503
33.48811	2522.509	26.52824	-40.09269	0.7640419
33.54206	2520.316	26.45063	-40.05922	0.7781548
33.59601	2518.139	26.36734	-40.02621	0.7901509
33.64996	2515.977	26.28395	-39.99377	0.7998132
33.7039	2513.828	26.20401	-39.96194	0.8069915
33.75785	2511.692	26.1306	-39.93081	0.8115976
33.8118	2509.565	26.06534	-39.9004	0.8136159
33.86575	2507.442	26.00766	-39.87075	0.8131049
33.91969	2505.32	25.95523	-39.8419	0.8101996
33.97364	2503.199	25.90483	-39.81384	0.8051148
34.02759	2501.078	25.85131	-39.7866	0.7981163
34.08154	2498.962	25.78959	-39.76019	0.7894993
34.13548	2496.853	25.71785	-39.73467	0.7795634
34.18943	2494.753	25.63427	-39.71008	0.7686152
34.24338	2492.659	25.53881	-39.68647	0.7569467
34.29733	2490.571	25.43241	-39.66391	0.744829
34.35127	2488.492	25.31541	-39.64245	0.7325092
34.40522	2486.423	25.19327	-39.62214	0.7201954
34.45917	2484.365	25.07352	-39.60303	0.7080681
34.51312	2482.311	24.96325	-39.58515	0.6962788
34.56707	2480.258	24.86846	-39.56851	0.6849419
34.62101	2478.202	24.79474	-39.55309	0.674139
34.67496	2476.141	24.74292	-39.53881	0.6639084
34.72891	2474.072	24.71027	-39.5256	0.654254
34.78286	2471.993	24.68881	-39.51335	0.6451542
34.8368	2469.903	24.66846	-39.50195	0.6365936
34.89075	2467.8	24.63858	-39.49128	0.6285692
34.9447	2465.683	24.58933	-39.48129	0.6210971
34.99865	2463.552	24.51664	-39.47188	0.6142157
35.05259	2461.406	24.42211	-39.46304	0.6079641
35.10654	2459.247	24.31157	-39.45472	0.6023862
35.16049	2457.081	24.19507	-39.44691	0.5975223
35.21444	2454.916	24.08629	-39.43963	0.593411
35.26838	2452.757	24.00051	-39.43288	0.5900686
35.32233	2450.608	23.95138	-39.42669	0.587487
35.37628	2448.472	23.94458	-39.42109	0.585634
35.43023	2446.353	23.97596	-39.4161	0.5844377
35.48417	2444.248	24.03525	-39.41177	0.5837904
35.53812	2442.152	24.11013	-39.4081	0.5835491
35.59207	2440.055	24.18811	-39.4051	0.5835342
35.64602	2437.95	24.25928	-39.40272	0.5835318
35.69997	2435.835	24.31736	-39.4009	0.5833012
35.75391	2433.713	24.3613	-39.39957	0.5825917
35.80786	2431.583	24.39288	-39.39864	0.5811595
35.86181	2429.443	24.4158	-39.39801	0.578791
35.91576	2427.292	24.43767	-39.39756	0.5753297
35.9697	2425.133	24.46456	-39.39714	0.5706856
36.02365	2422.973	24.50173	-39.39662	0.5648462
36.0776	2420.816	24.55476	-39.39585	0.5578627
36.13155	2418.667	24.62491	-39.39473	0.5498315
36.18549	2416.524	24.71272	-39.39314	0.5408906
36.23944	2414.383	24.81254	-39.391	0.5312405
36.29339	2412.24	24.9123	-39.38824	0.5211006
36.34734	2410.09	24.99794	-39.38481	0.5107111
36.40128	2407.928	25.05785	-39.38063	0.5003138
36.45523	2405.753	25.07896	-39.37567	0.4901253
36.50918	2403.57	25.05227	-39.36988	0.4803323
36.56313	2401.383	24.97594	-39.36322	0.471068
36.61707	2399.198	24.85511	-39.35567	0.4624227
36.67102	2397.012	24.70521	-39.34719	0.4544301
36.72497	2394.825	24.54508	-39.3377	0.4470982
36.77892	2392.636	24.38948	-39.32714	0.4403957
36.83287	2390.451	24.25005	-39.31544	0.434281
36.88681	2388.279	24.13584	-39.30253	0.4287179
36.94076	2386.128	24.05493	-39.28837	0.4236783
36.99471	2384	24.0072	-39.27293	0.4191432
37.04866	2381.894	23.98475	-39.25619	0.4150973
37.1026	2379.808	23.97521	-39.23813	0.4115436
37.15655	2377.741	23.96414	-39.21874	0.4084892
37.2105	2375.69	23.93939	-39.19799	0.4059444
37.26445	2373.649	23.89476	-39.1759	0.4039045
37.31839	2371.613	23.82906	-39.15244	0.402353
37.37234	2369.576	23.74365	-39.12766	0.4012581
37.42629	2367.534	23.6387	-39.10158	0.4005923
37.48024	2365.484	23.51628	-39.07427	0.4003327
37.53418	2363.421	23.38312	-39.04581	0.4004644
37.58813	2361.34	23.24769	-39.01628	0.4009734
37.64208	2359.24	23.12004	-38.98577	0.4018476
37.69603	2357.125	23.00857	-38.95436	0.4030617
37.74998	2355.004	22.91926	-38.92217	0.4045882
37.80392	2352.881	22.8565	-38.88929	0.4063869
37.85787	2350.758	22.82562	-38.85583	0.4083971
37.91182	2348.634	22.82625	-38.8219	0.4105445
37.96577	2346.508	22.85127	-38.78759	0.4127226
38.01971	2344.38	22.88956	-38.75297	0.4148019
38.07366	2342.255	22.92735	-38.7181	0.4166605
38.12761	2340.135	22.95565	-38.68301	0.4181762
38.18156	2338.024	22.96939	-38.64774	0.4192609
38.2355	2335.926	22.96822	-38.61233	0.4198738
38.28945	2333.838	22.95518	-38.57682	0.4200047
38.3434	2331.751	22.93673	-38.54128	0.4196889
38.39735	2329.657	22.92273	-38.50576	0.41898
38.45129	2327.553	22.92101	-38.47033	0.4179612
38.50524	2325.445	22.93599	-38.43508	0.4167215
38.55919	2323.341	22.96516	-38.40013	0.4153513
38.61314	2321.246	23.00626	-38.3656	0.4139301
38.66708	2319.162	23.06044	-38.3316	0.4125367
38.72103	2317.089	23.12868	-38.29825	0.4112402
38.77498	2315.025	23.2079	-38.26563	0.4100804
38.82893	2312.971	23.29276	-38.23385	0.4090733
38.88288	2310.93	23.38035	-38.203	0.4082102
38.93682	2308.905	23.46848	-38.17316	0.4074626
38.99077	2306.889	23.55232	-38.14442	0.4067824
39.04472	2304.876	23.62752	-38.11682	0.4061112
39.09867	2302.858	23.68916	-38.09041	0.4054093
39.15261	2300.83	23.73451	-38.0652	0.4046717
39.20656	2298.787	23.75989	-38.04114	0.4039278
39.26051	2296.728	23.76277	-38.01819	0.4032467
39.31446	2294.658	23.74672	-37.99626	0.4027224
39.3684	2292.585	23.71437	-37.97529	0.4024856
39.42235	2290.514	23.66866	-37.95518	0.4026939
39.4763	2288.447	23.61418	-37.93588	0.4035249
39.53025	2286.385	23.55921	-37.91729	0.405172
39.58419	2284.324	23.51221	-37.89935	0.4078271
39.63814	2282.266	23.47496	-37.88202	0.4116754
39.69209	2280.216	23.44128	-37.86525	0.4168826
39.74604	2278.178	23.40207	-37.84902	0.4235971
39.79998	2276.157	23.3506	-37.83333	0.4319193
39.85393	2274.151	23.28909	-37.8182	0.4418835
39.90788	2272.155	23.22068	-37.80363	0.4534461
39.96183	2270.163	23.14679	-37.78964	0.4664697
40.01578	2268.168	23.06647	-37.77621	0.4807259
40.06973	2266.165	22.97831	-37.76331	0.4959197
40.12367	2264.154	22.88189	-37.75087	0.5117059
40.17762	2262.138	22.77598	-37.73884	0.5277282
40.23157	2260.125	22.66446	-37.72715	0.5436407
40.28551	2258.12	22.54764	-37.71575	0.5591261
40.33946	2256.123	22.42788	-37.70459	0.5738986
40.39341	2254.129	22.31085	-37.6936	0.5877277
40.44736	2252.138	22.20284	-37.68273	0.6004327
40.5013	2250.148	22.11039	-37.67193	0.6118761
40.55525	2248.161	22.03566	-37.66114	0.6219723
40.6092	2246.18	21.98024	-37.65032	0.6306789
40.66315	2244.208	21.94657	-37.63945	0.6379987
40.71709	2242.239	21.93267	-37.62848	0.643966
40.77104	2240.267	21.93064	-37.61741	0.6486109
40.82499	2238.284	21.9302	-37.60621	0.6519633
40.87894	2236.281	21.92341	-37.5949	0.6540146
40.93288	2234.257	21.90549	-37.58348	0.6547405
40.98683	2232.211	21.87389	-37.57198	0.6540936
41.04078	2230.144	21.82875	-37.56046	0.6520135
41.09473	2228.062	21.77657	-37.54896	0.6484622
41.14868	2225.97	21.72547	-37.53755	0.6434226
41.20263	2223.874	21.68251	-37.52625	0.6369298
41.25657	2221.778	21.65365	-37.51509	0.6290427
41.31052	2219.688	21.64395	-37.50409	0.6198577
41.36447	2217.607	21.65533	-37.49326	0.6095035
41.41842	2215.536	21.68432	-37.48261	0.5981321
41.47236	2213.476	21.72364	-37.47215	0.5859349
41.52631	2211.422	21.76917	-37.46182	0.5731257
41.58026	2209.374	21.81494	-37.45161	0.5599407
41.6342	2207.324	21.8539	-37.44146	0.5466301
41.68815	2205.266	21.87792	-37.43131	0.5334511
41.7421	2203.2	21.87775	-37.42111	0.5206406
41.79605	2201.129	21.84991	-37.41079	0.5084081
41.84999	2199.057	21.79757	-37.40031	0.4969476
41.90394	2196.99	21.7248	-37.38962	0.4864273
41.95789	2194.933	21.63793	-37.37866	0.4769823
42.01184	2192.893	21.54445	-37.36736	0.4687065
42.06578	2190.868	21.452	-37.35564	0.4616694
42.11973	2188.857	21.36643	-37.34343	0.4559177
42.17368	2186.857	21.29774	-37.33066	0.4514537
42.22763	2184.871	21.25296	-37.31728	0.44825
42.28158	2182.897	21.23252	-37.30323	0.4462376
42.33553	2180.933	21.23286	-37.28844	0.4453395
42.38947	2178.974	21.24547	-37.27282	0.4454527
42.44342	2177.013	21.26225	-37.25624	0.4464662
42.49737	2175.042	21.27642	-37.23859	0.4482449
42.55132	2173.057	21.28399	-37.2197	0.4506451
42.60526	2171.057	21.28792	-37.19943	0.4535217
42.65921	2169.044	21.29297	-37.17764	0.4567456
42.71316	2167.022	21.30036	-37.15422	0.4602172
42.76711	2164.997	21.30855	-37.1291	0.4638464
42.82105	2162.972	21.31473	-37.1022	0.4675546
42.875	2160.953	21.31847	-37.07349	0.4712697
42.92895	2158.944	21.322	-37.04298	0.4749244
42.98289	2156.949	21.3279	-37.01074	0.4784489
43.03684	2154.965	21.33779	-36.97686	0.4817671
43.09079	2152.992	21.35188	-36.94148	0.4848032
43.14474	2151.028	21.36776	-36.9048	0.4874775
43.19868	2149.069	21.38039	-36.86703	0.4897203
43.25263	2147.114	21.38475	-36.8284	0.4914586
43.30658	2145.159	21.37667	-36.78912	0.4926313
43.36053	2143.201	21.35578	-36.7494	0.4931787
43.41448	2141.236	21.32612	-36.70945	0.4930591
43.46843	2139.262	21.29286	-36.66944	0.4922527
43.52237	2137.281	21.25998	-36.62955	0.4907702
43.57632	2135.296	21.22683	-36.58992	0.4886515
43.63027	2133.308	21.1901	-36.55069	0.4859562
43.68422	2131.317	21.14439	-36.51198	0.4827721
43.73816	2129.328	21.08459	-36.47389	0.4791839
43.79211	2127.342	21.01059	-36.43652	0.4752941
43.84606	2125.36	20.92427	-36.39993	0.4712179
43.90001	2123.379	20.82664	-36.36418	0.4670815
43.95395	2121.398	20.72109	-36.32932	0.4630209
44.0079	2119.417	20.61311	-36.29539	0.4591624
44.06185	2117.432	20.50619	-36.26242	0.4556276
44.1158	2115.442	20.40371	-36.23044	0.4525037
44.16974	2113.448	20.30901	-36.19947	0.449825
44.22369	2111.451	20.22557	-36.16953	0.4475722
44.27764	2109.453	20.15851	-36.14067	0.4456774
44.33158	2107.454	20.11362	-36.11293	0.444041
44.38554	2105.452	20.09238	-36.08632	0.4425538
44.43948	2103.447	20.08745	-36.06084	0.4410881
44.49343	2101.44	20.0892	-36.03647	0.4395087
44.54738	2099.439	20.09379	-36.01317	0.4376904
44.60133	2097.448	20.10034	-35.99084	0.4355198
44.65527	2095.476	20.10656	-35.96939	0.4329175
44.70922	2093.528	20.10912	-35.94873	0.4298559
44.76317	2091.604	20.10635	-35.92871	0.4263658
44.81712	2089.702	20.09614	-35.90925	0.42255
44.87106	2087.818	20.07836	-35.89022	0.4185873
44.92501	2085.947	20.05288	-35.87152	0.414708
44.97896	2084.086	20.02095	-35.85306	0.4111902
45.03291	2082.234	19.98689	-35.83477	0.4083292
45.08685	2080.39	19.95757	-35.81662	0.4063966
45.1408	2078.553	19.9383	-35.79863	0.4056402
45.19475	2076.722	19.93219	-35.78083	0.4062188
45.2487	2074.891	19.93726	-35.76328	0.408199
45.30264	2073.06	19.94523	-35.74603	0.4115302
45.35659	2071.226	19.94971	-35.72918	0.4160474
45.41054	2069.383	19.94757	-35.71281	0.4214934
45.46449	2067.527	19.93926	-35.69704	0.427563
45.51844	2065.659	19.92831	-35.682	0.4339019
45.57238	2063.777	19.92246	-35.6678	0.4401646
45.62633	2061.88	19.92877	-35.65461	0.4460016
45.68028	2059.967	19.94916	-35.64254	0.4511052
45.73423	2058.036	19.9808	-35.63171	0.455207
45.78817	2056.094	20.01828	-35.62221	0.458107
45.84212	2054.146	20.05292	-35.61406	0.4596653
45.89607	2052.197	20.07825	-35.60727	0.4598205
45.95002	2050.252	20.09487	-35.60182	0.4585766
46.00396	2048.314	20.10671	-35.59764	0.4560136
46.05791	2046.38	20.11706	-35.59465	0.4522645
46.11186	2044.446	20.12714	-35.59277	0.4475157
46.16581	2042.508	20.13674	-35.59185	0.4419839
46.21975	2040.566	20.14629	-35.59176	0.4359119
46.2737	2038.617	20.15889	-35.59238	0.429545
46.32765	2036.664	20.17664	-35.59357	0.4231265
46.3816	2034.711	20.19672	-35.59517	0.4168628
46.43554	2032.76	20.21464	-35.59704	0.4109051
46.48949	2030.813	20.22625	-35.59901	0.4053516
46.54344	2028.868	20.22749	-35.60091	0.4002219
46.59739	2026.927	20.2115	-35.60257	0.395466
46.65134	2024.995	20.17095	-35.60382	0.3909698
46.70528	2023.073	20.10254	-35.60449	0.386576
46.75923	2021.162	20.00819	-35.60439	0.3820967
46.81318	2019.261	19.89433	-35.60332	0.3773486
46.86713	2017.366	19.76578	-35.60111	0.3721624
46.92107	2015.468	19.62638	-35.59754	0.3663981
46.97502	2013.566	19.4814	-35.5924	0.3599602
47.02897	2011.662	19.33804	-35.58548	0.3528169
47.08292	2009.757	19.20394	-35.57662	0.3450119
47.13686	2007.848	19.08702	-35.56564	0.3366682
47.19081	2005.932	18.994	-35.55238	0.327979
47.24476	2004.01	18.92706	-35.53673	0.3191689
47.29871	2002.083	18.88539	-35.51859	0.3104821
47.35265	2000.148	18.86267	-35.49791	0.302145
47.4066	1998.202	18.84717	-35.47469	0.2943471
47.46055	1996.246	18.82606	-35.44899	0.2872237
47.5145	1994.285	18.79065	-35.42094	0.2808458
47.56844	1992.324	18.73862	-35.39071	0.2752195
47.62239	1990.368	18.67403	-35.35851	0.2702842
47.67634	1988.414	18.60394	-35.3246	0.2659194
47.73029	1986.463	18.53648	-35.28922	0.2619545
47.78424	1984.514	18.47928	-35.25262	0.258188
47.83818	1982.566	18.44255	-35.21504	0.2544135
47.89213	1980.62	18.43614	-35.17669	0.2504433
47.94608	1978.675	18.46651	-35.13776	0.2461255
48.00003	1976.732	18.53282	-35.09846	0.2413693
48.05397	1974.79	18.62784	-35.05895	0.2361323
48.10792	1972.851	18.73841	-35.0194	0.230426
48.16187	1970.914	18.85048	-34.97993	0.2243138
48.21582	1968.98	18.95341	-34.94069	0.217886
48.26976	1967.047	19.03799	-34.90176	0.2112661
48.32371	1965.117	19.09733	-34.86324	0.2046044
48.37766	1963.195	19.12967	-34.82517	0.1980736
48.43161	1961.284	19.13589	-34.78761	0.1918802
48.48555	1959.384	19.12069	-34.75059	0.1862511
48.5395	1957.493	19.09037	-34.71414	0.1814218
48.59345	1955.609	19.05162	-34.67828	0.177627
48.6474	1953.734	19.01248	-34.64305	0.1750831
48.70134	1951.87	18.97993	-34.60848	0.1739867
48.75529	1950.021	18.96211	-34.57462	0.1744938
48.80924	1948.184	18.96291	-34.54151	0.1767174
48.86319	1946.359	18.98304	-34.50919	0.1807257
48.91714	1944.541	19.02241	-34.47768	0.1865352
48.97108	1942.733	19.0786	-34.44701	0.1941246
49.02503	1940.933	19.14618	-34.41723	0.2034507
49.07898	1939.14	19.2168	-34.38836	0.2144288
49.13293	1937.351	19.28298	-34.36041	0.2269398
49.18687	1935.565	19.33919	-34.3334	0.2408268
49.24082	1933.783	19.38159	-34.3073	0.2559028
49.29477	1932.004	19.40864	-34.28212	0.2719497
49.34872	1930.23	19.42214	-34.25782	0.288725
49.40266	1928.458	19.42721	-34.23438	0.3059685
49.45661	1926.688	19.43019	-34.21182	0.3234012
49.51056	1924.918	19.43764	-34.19016	0.3407496
49.56451	1923.145	19.45399	-34.16945	0.3577449
49.61845	1921.365	19.47957	-34.14976	0.3741376
49.6724	1919.575	19.51077	-34.13117	0.38969
49.72635	1917.777	19.53729	-34.11375	0.4041952
49.7803	1915.972	19.54751	-34.09757	0.4174847
49.83424	1914.165	19.53455	-34.0827	0.4294204
49.88819	1912.356	19.49759	-34.06918	0.4399113
49.94214	1910.547	19.43942	-34.05701	0.4489022
49.99609	1908.734	19.3651	-34.04622	0.4563821
50.05004	1906.916	19.28101	-34.03679	0.4623911
50.10398	1905.093	19.19084	-34.02868	0.4670102
50.15793	1903.262	19.09536	-34.02184	0.4703601
50.21188	1901.423	18.99493	-34.01617	0.4726117
50.26583	1899.576	18.89026	-34.01156	0.4739657
50.31977	1897.722	18.78275	-34.00785	0.4746566
50.37372	1895.866	18.67306	-34.0049	0.4749381
50.42767	1894.011	18.5645	-34.00253	0.4750726
50.48162	1892.161	18.46004	-34.00055	0.4752919
50.53556	1890.315	18.363	-33.99878	0.4758003
50.58951	1888.47	18.27455	-33.99704	0.4767373
50.64346	1886.625	18.19234	-33.99515	0.4781961
50.69741	1884.777	18.11347	-33.99294	0.4802008
50.75135	1882.924	18.03553	-33.99027	0.4827176
50.8053	1881.062	17.95732	-33.987	0.4856531
50.85925	1879.195	17.88069	-33.98301	0.4888649
50.9132	1877.324	17.80893	-33.97824	0.4921796
50.96714	1875.453	17.74405	-33.97259	0.4954081
51.02109	1873.588	17.68836	-33.96601	0.498375
51.07504	1871.729	17.64533	-33.95845	0.5009221
51.12899	1869.875	17.61954	-33.94986	0.5029249
51.18294	1868.022	17.6129	-33.94017	0.5042936
51.23689	1866.167	17.6227	-33.92934	0.5049638
51.29083	1864.309	17.64232	-33.91732	0.5049089
51.34478	1862.446	17.66675	-33.90409	0.5041221
51.39873	1860.581	17.68995	-33.8896	0.5026307
51.45267	1858.715	17.70744	-33.87384	0.5004935
51.50662	1856.848	17.71532	-33.85684	0.4978015
51.56057	1854.98	17.71237	-33.83863	0.4946708
51.61452	1853.11	17.7019	-33.81923	0.4912205
51.66846	1851.242	17.68873	-33.79869	0.4875801
51.72241	1849.377	17.67728	-33.7771	0.4838836
51.77636	1847.518	17.66914	-33.75452	0.4802638
51.83031	1845.666	17.66408	-33.73105	0.4768578
51.88425	1843.823	17.66284	-33.70683	0.4737976
51.9382	1841.987	17.66735	-33.68196	0.4712113
51.99215	1840.157	17.68007	-33.65658	0.469225
52.0461	1838.33	17.70084	-33.63082	0.4679524
52.10004	1836.504	17.72765	-33.60481	0.4674964
52.154	1834.675	17.75933	-33.57867	0.4679518
52.20794	1832.843	17.79426	-33.55253	0.4694077
52.26189	1831.006	17.8288	-33.5265	0.471932
52.31584	1829.163	17.85575	-33.50072	0.4755761
52.36979	1827.319	17.87115	-33.47529	0.4803757
52.42373	1825.478	17.87455	-33.45032	0.4863563
52.47768	1823.651	17.86803	-33.42588	0.4935104
52.53163	1821.844	17.85489	-33.40204	0.5018018
52.58558	1820.061	17.83961	-33.37885	0.5111549
52.63952	1818.303	17.82657	-33.35633	0.5214593
52.69347	1816.565	17.81717	-33.33452	0.5325601
52.74742	1814.845	17.81031	-33.3134	0.544274
52.80136	1813.139	17.80453	-33.29299	0.5563804
52.85531	1811.44	17.7992	-33.27326	0.568661
52.90926	1809.74	17.79297	-33.25419	0.5808826
52.96321	1808.035	17.78541	-33.23576	0.5928292
53.01715	1806.321	17.77748	-33.21793	0.604299
53.0711	1804.594	17.77161	-33.20063	0.6151297
53.12505	1802.853	17.76917	-33.18379	0.6251756
53.179	1801.097	17.76751	-33.16736	0.6343181
53.23294	1799.329	17.76166	-33.15126	0.6424563
53.2869	1797.551	17.74778	-33.13548	0.6495112
53.34084	1795.77	17.72318	-33.12	0.6554244
53.39479	1793.99	17.68583	-33.10481	0.6601431
53.44874	1792.217	17.63483	-33.08995	0.6636453
53.50269	1790.451	17.57057	-33.07542	0.6659068
53.55663	1788.694	17.49389	-33.06125	0.6669233
53.61058	1786.94	17.40368	-33.04743	0.6666884
53.66453	1785.189	17.30194	-33.03395	0.6651957
53.71848	1783.438	17.192	-33.0208	0.6624362
53.77242	1781.685	17.07759	-33.00795	0.6583944
53.82637	1779.926	16.9636	-32.99537	0.653066
53.88032	1778.159	16.85485	-32.98303	0.646465
53.93427	1776.381	16.75624	-32.97091	0.6386152
53.98821	1774.594	16.66835	-32.95897	0.6295587
54.04216	1772.799	16.58865	-32.94716	0.6193518
54.09611	1770.997	16.51686	-32.93545	0.6080719
54.15005	1769.192	16.4566	-32.92379	0.595824
54.204	1767.386	16.41116	-32.91216	0.5827448
54.25795	1765.584	16.37922	-32.90055	0.5690004
54.3119	1763.785	16.35641	-32.88896	0.5547873
54.36585	1761.991	16.33619	-32.8774	0.5403335
54.4198	1760.202	16.3113	-32.86586	0.525902
54.47374	1758.417	16.27743	-32.85432	0.5117779
54.52769	1756.634	16.23511	-32.84274	0.4982575
54.58164	1754.853	16.18852	-32.83109	0.485631
54.63559	1753.07	16.14276	-32.8193	0.4741637
54.68953	1751.281	16.10252	-32.8073	0.4640773
54.74348	1749.483	16.07147	-32.79502	0.4555607
54.79743	1747.671	16.04991	-32.78234	0.4487566
54.85138	1745.843	16.03691	-32.76919	0.4437686
54.90532	1743.999	16.02968	-32.75545	0.4406802
54.95927	1742.141	16.02614	-32.74105	0.4395421
55.01322	1740.276	16.02628	-32.72589	0.4403902
55.06717	1738.41	16.03028	-32.70991	0.4432026
55.12111	1736.549	16.03704	-32.69304	0.4479241
55.17506	1734.7	16.04538	-32.67524	0.4544449
55.22901	1732.871	16.05551	-32.65647	0.4626064
55.28296	1731.063	16.06847	-32.63673	0.4722118
55.3369	1729.281	16.08404	-32.61607	0.483032
55.39085	1727.524	16.1012	-32.59454	0.4948281
55.4448	1725.792	16.11848	-32.57222	0.5073514
55.49875	1724.079	16.13638	-32.54922	0.5203568
55.5527	1722.379	16.15392	-32.52564	0.5336004
55.60664	1720.687	16.16913	-32.50163	0.5468514
55.66059	1718.999	16.18054	-32.47728	0.5598832
55.71454	1717.313	16.18781	-32.45272	0.5724801
55.76849	1715.626	16.19471	-32.42807	0.5844377
55.82243	1713.933	16.20481	-32.40342	0.5955834
55.87638	1712.23	16.22239	-32.37886	0.6057637
55.93033	1710.515	16.24764	-32.3545	0.6148415
55.98428	1708.791	16.27682	-32.3304	0.622712
56.03822	1707.059	16.30538	-32.30665	0.6292762
56.09217	1705.325	16.32915	-32.28333	0.6344647
56.14612	1703.592	16.3455	-32.26052	0.6382119
56.20007	1701.864	16.35394	-32.23829	0.6404722
56.25401	1700.141	16.35455	-32.21668	0.6412196
56.30796	1698.426	16.34794	-32.19576	0.6404315
56.36191	1696.715	16.33222	-32.17551	0.6380922
56.41586	1695.006	16.30447	-32.15594	0.6341982
56.4698	1693.292	16.26495	-32.137	0.6287681
56.52375	1691.569	16.21731	-32.11862	0.6218446
56.5777	1689.835	16.16552	-32.10071	0.6135072
56.63165	1688.092	16.11381	-32.08315	0.6038736
56.6856	1686.344	16.06662	-32.06583	0.5930996
56.73954	1684.594	16.02611	-32.0486	0.5813784
56.79349	1682.845	15.99387	-32.03132	0.5689329
56.84744	1681.098	15.96908	-32.01386	0.556003
56.90139	1679.356	15.95002	-31.99608	0.5428518
56.95533	1677.625	15.93429	-31.97787	0.5297615
57.00928	1675.911	15.91856	-31.95911	0.5170241
57.06323	1674.214	15.89891	-31.93974	0.5049165
57.11718	1672.53	15.87149	-31.9197	0.4936942
57.17112	1670.857	15.83454	-31.89895	0.4835811
57.22507	1669.195	15.78953	-31.87744	0.4747595
57.27902	1667.539	15.73825	-31.85514	0.4673694
57.33297	1665.89	15.68093	-31.83201	0.4614938
57.38691	1664.242	15.61711	-31.80802	0.4571631
57.44086	1662.591	15.54768	-31.78316	0.4543542
57.49481	1660.928	15.47126	-31.75743	0.4529887
57.54876	1659.248	15.38674	-31.73088	0.4529331
57.6027	1657.548	15.29661	-31.70356	0.4540104
57.65665	1655.826	15.20361	-31.67556	0.4559944
57.7106	1654.086	15.10981	-31.64698	0.4586202
57.76455	1652.332	15.01684	-31.61791	0.4616148
57.8185	1650.571	14.92639	-31.58848	0.4646934
57.87244	1648.805	14.83953	-31.55882	0.4675882
57.92639	1647.038	14.75674	-31.52906	0.4700363
57.98034	1645.268	14.67979	-31.49934	0.4718014
58.03429	1643.494	14.61097	-31.4698	0.4726688
58.08823	1641.714	14.55212	-31.44058	0.472444
58.14218	1639.93	14.50615	-31.41183	0.4709446
58.19613	1638.143	14.4738	-31.38368	0.4680159
58.25008	1636.354	14.45744	-31.35623	0.463523
58.30402	1634.567	14.45937	-31.32955	0.4573631
58.35797	1632.787	14.47766	-31.30367	0.4494738
58.41192	1631.015	14.50794	-31.27856	0.43983
58.46587	1629.253	14.5469	-31.25419	0.4284407
58.51981	1627.501	14.59051	-31.23048	0.4153443
58.57376	1625.759	14.63386	-31.20731	0.4006023
58.62771	1624.027	14.67311	-31.18457	0.3842959
58.68166	1622.305	14.70703	-31.1621	0.3665268
58.7356	1620.594	14.73621	-31.13974	0.3474194
58.78955	1618.897	14.76198	-31.11733	0.3271163
58.8435	1617.215	14.78622	-31.09469	0.3057764
58.89745	1615.552	14.81161	-31.07166	0.2835721
58.9514	1613.91	14.83838	-31.04807	0.2606847
59.00534	1612.291	14.86443	-31.02377	0.2373171
59.05929	1610.693	14.88745	-30.99862	0.2136967
59.11324	1609.117	14.90391	-30.9725	0.1900909
59.16719	1607.557	14.91413	-30.94527	0.1668246
59.22113	1606.007	14.91992	-30.91681	0.1443316
59.27508	1604.464	14.92321	-30.88698	0.1232307
59.32903	1602.924	14.92743	-30.85564	0.1044858
59.38298	1601.38	14.93708	-30.82267	0.08959541
59.43692	1599.828	14.95326	-30.78795	0.08059963
59.49087	1598.264	14.97198	-30.75139	0.07928507
59.54482	1596.689	14.99047	-30.71294	0.0856858
59.59877	1595.101	15.00707	-30.67254	0.09796423
59.65271	1593.496	15.01992	-30.63019	0.1139029
59.70666	1591.874	15.02555	-30.58588	0.1318518
59.76061	1590.234	15.02079	-30.53967	0.1507708
59.81456	1588.583	15.00546	-30.49164	0.1700104
59.8685	1586.93	14.98152	-30.44189	0.1891538
59.92245	1585.278	14.95284	-30.39057	0.2079205
59.9764	1583.633	14.92588	-30.33783	0.2261164
60.03035	1581.99	14.90579	-30.28381	0.2436151
60.0843	1580.346	14.89752	-30.22871	0.2603477
60.13824	1578.694	14.90282	-30.17269	0.2762922
60.19219	1577.03	14.9214	-30.11594	0.2914537
60.24614	1575.353	14.95387	-30.05863	0.3058573
60.30009	1573.664	14.99938	-30.0009	0.3195302
60.35403	1571.966	15.05338	-29.94287	0.3325017
60.40798	1570.263	15.10863	-29.88462	0.3447956
60.46193	1568.557	15.15761	-29.82621	0.35643
60.51588	1566.855	15.19282	-29.76765	0.3674187
60.56982	1565.16	15.20785	-29.70891	0.3777754
60.62377	1563.475	15.19868	-29.64997	0.3874971
60.67772	1561.799	15.16369	-29.59075	0.3965664
60.73167	1560.128	15.10459	-29.5312	0.4049471
60.78561	1558.464	15.02903	-29.47122	0.4125898
60.83956	1556.808	14.94841	-29.41072	0.4194386
60.89351	1555.162	14.87133	-29.34959	0.4254265
60.94746	1553.525	14.8026	-29.28773	0.4304831
61.0014	1551.897	14.74537	-29.22497	0.4345433
61.05536	1550.279	14.6994	-29.16118	0.437557
61.1093	1548.667	14.66379	-29.09619	0.4394911
61.16325	1547.062	14.6369	-29.02979	0.4403355
61.2172	1545.462	14.61614	-28.96181	0.4401015
61.27114	1543.868	14.59796	-28.89202	0.4388169
61.32509	1542.28	14.57754	-28.82025	0.4365219
61.37904	1540.7	14.54999	-28.7463	0.433255
61.43299	1539.124	14.51069	-28.67002	0.4290475
61.48693	1537.556	14.45711	-28.59124	0.4239213
61.54088	1535.997	14.38855	-28.50982	0.4178889
61.59483	1534.448	14.30773	-28.42561	0.4109594
61.64878	1532.908	14.21975	-28.33846	0.4031436
61.70272	1531.378	14.12904	-28.24823	0.3944551
61.75667	1529.859	14.03968	-28.15477	0.3849163
61.81062	1528.353	13.95532	-28.05797	0.3745543
61.86457	1526.861	13.87855	-27.95769	0.3633981
61.91851	1525.384	13.81247	-27.85384	0.3514854
61.97246	1523.922	13.75794	-27.74629	0.3388591
62.02641	1522.477	13.71621	-27.63496	0.3255654
62.08036	1521.047	13.68829	-27.51975	0.3116589
62.13431	1519.629	13.67317	-27.40057	0.2971967
62.18826	1518.218	13.66679	-27.27731	0.2822312
62.2422	1516.812	13.6651	-27.1499	0.266794
62.29615	1515.406	13.66426	-27.01825	0.2509004
62.3501	1513.995	13.66252	-26.8823	0.2345601
62.40405	1512.577	13.65928	-26.74197	0.2177872
62.45799	1511.149	13.65398	-26.59714	0.2006139
62.51194	1509.715	13.64805	-26.4477	0.1830918
62.56589	1508.28	13.64315	-26.29346	0.1653175
62.61983	1506.847	13.63978	-26.13426	0.147432
62.67378	1505.419	13.63711	-25.96988	0.1296427
62.72773	1503.994	13.63607	-25.8001	0.1122777
62.78168	1502.572	13.64274	-25.6247	0.09587424
62.83562	1501.152	13.66241	-25.44346	0.08134463
62.88957	1499.734	13.69835	-25.25611	0.07017712
62.94352	1498.318	13.75055	-25.06239	0.06439381
62.99747	1496.906	13.81423	-24.862	0.06558327
63.05141	1495.498	13.88352	-24.6546	0.07345025
63.10536	1494.094	13.95174	-24.43984	0.08613645
63.15931	1492.691	14.01407	-24.21734	0.1017426
63.21326	1491.288	14.0672	-23.98671	0.1189637
63.26721	1489.883	14.10969	-23.74753	0.1369862
63.32116	1488.474	14.13997	-23.49938	0.1552899
63.3751	1487.063	14.15712	-23.24184	0.1735203
63.42905	1485.654	14.16339	-22.97448	0.1914254
63.483	1484.25	14.16281	-22.69688	0.2088284
63.53695	1482.857	14.15965	-22.4086	0.2255992
63.59089	1481.478	14.15645	-22.10921	0.2416613
63.64484	1480.119	14.15364	-21.79825	0.2569822
63.69879	1478.785	14.15096	-21.47526	0.2715731
63.75274	1477.482	14.14818	-21.13976	0.2855093
63.80668	1476.213	14.14559	-20.79129	0.2989243
63.86063	1474.977	14.14169	-20.42938	0.3120157
63.91458	1473.772	14.13427	-20.05352	0.3250427
63.96852	1472.588	14.12509	-19.66319	0.3383249
64.02248	1471.418	14.11868	-19.25786	0.3522259
64.07642	1470.258	14.11973	-18.837	0.3671494
64.13037	1469.105	14.13198	-18.40003	0.3834815
64.18432	1467.964	14.15757	-17.94639	0.4016065
64.23827	1466.839	14.19544	-17.47551	0.421862
64.29221	1465.735	14.24366	-16.98683	0.4445147
64.34616	1464.653	14.29904	-16.47978	0.4697414
64.40011	1463.594	14.35576	-15.9538	0.4976219
64.45406	1462.561	14.40826	-15.40832	0.5281511
64.508	1461.558	14.45078	-14.8428	0.5612275
64.56195	1460.586	14.47858	-14.25666	0.5967009
64.6159	1459.646	14.48924	-13.64936	0.6343732
64.66985	1458.741	14.48206	-13.02034	0.6740552
64.72379	1457.871	14.4603	-12.36903	0.7155442
64.77774	1457.037	14.43108	-11.6949	0.7586594
64.83169	1456.237	14.40532	-10.99735	0.8032507
64.88564	1455.465	14.39168	-10.27582	0.8491874
64.93958	1454.718	14.39441	-9.529699	0.8963879
64.99353	1453.999	14.41371	-8.758363	0.9448186
65.04748	1453.311	14.4474	-7.961174	0.9944951
65.10143	1452.661	14.49162	-7.137481	1.045484
65.15537	1452.054	14.54099	-6.286616	1.097897
65.20932	1451.494	14.59214	-5.407893	1.151862
65.26327	1450.989	14.6417	-4.500626	1.207545
65.31721	1450.538	14.68478	-3.56412	1.265101
65.37116	1450.143	14.71721	-2.597672	1.324677
65.42511	1449.801	14.73428	-1.600564	1.386407
65.47906	1449.511	14.73399	-0.5720638	1.450408
65.533	1449.271	14.72087	0.4885735	1.516766
65.58695	1449.08	14.70269	1.582108	1.585533
65.6409	1448.934	14.68906	2.709313	1.656721
65.69485	1448.829	14.69092	3.870971	1.730299
65.74879	1448.767	14.71815	5.067874	1.806244
65.80274	1448.75	14.7749	6.300815	1.884465
65.85669	1448.785	14.85837	7.570593	1.964874
65.91064	1448.881	14.96405	8.878014	2.047377
65.96458	1449.042	15.08627	10.22389	2.131883
66.01854	1449.269	15.21826	11.60904	2.218311
66.07249	1449.56	15.35253	13.03426	2.306597
66.12643	1449.917	15.48115	14.50037	2.396695
66.18038	1450.339	15.59834	16.00813	2.488593
66.23433	1450.828	15.70321	17.55834	2.582292
66.28828	1451.383	15.79803	19.15176	2.677761
66.34222	1452.003	15.88533	20.78915	2.774998
66.39617	1452.69	15.97078	22.47128	2.87398
66.45012	1453.446	16.06288	24.19889	2.974666
66.50407	1454.282	16.17007	25.97272	3.076994
66.55801	1455.202	16.29908	27.79347	3.180887
66.61196	1456.213	16.45495	29.66184	3.286272
66.66591	1457.323	16.63764	31.57851	3.393042
66.71986	1458.54	16.84448	33.54408	3.501103
66.7738	1459.872	17.0723	35.55918	3.610343
66.82775	1461.324	17.31503	37.62441	3.720731
66.8817	1462.9	17.56622	39.74037	3.832153
66.93565	1464.598	17.82037	41.90765	3.94454
66.98959	1466.416	18.07225	44.1268	4.057833
67.04354	1468.351	18.31786	46.39837	4.171995
67.09749	1470.4	18.55397	48.72285	4.286991
67.15144	1472.559	18.78034	51.10073	4.402803
67.20538	1474.83	19.00039	53.53246	4.519408
67.25933	1477.212	19.22039	56.01843	4.636779
67.31328	1479.711	19.44888	58.559	4.754878
67.36723	1482.333	19.69158	61.15448	4.873647
67.42117	1485.086	19.94963	63.80517	4.993043
67.47512	1487.978	20.22571	66.51131	5.113009
67.52907	1491.021	20.52096	69.27304	5.233476
67.58302	1494.222	20.83371	72.09051	5.354377
67.63696	1497.59	21.16048	74.96375	5.475669
67.69091	1501.13	21.49736	77.89285	5.597215
67.74486	1504.841	21.84059	80.87772	5.718983
67.79881	1508.721	22.18662	83.91833	5.84091
67.85275	1512.765	22.53047	87.0145	5.962947
67.9067	1516.971	22.86572	90.16608	6.085026
67.96065	1521.34	23.18749	93.37274	6.207186
68.0146	1525.876	23.49546	96.63416	6.329369
68.06854	1530.583	23.79063	99.94991	6.451559
68.12249	1535.471	24.07699	103.3195	6.573713
68.17644	1540.548	24.36261	106.7422	6.69578
68.23039	1545.821	24.65738	110.2175	6.817716
68.28434	1551.299	24.97009	113.7446	6.939443
68.33829	1556.986	25.30679	117.3225	7.060895
68.39223	1562.885	25.67025	120.9504	7.182005
68.44618	1569	26.05855	124.6272	7.302694
68.50013	1575.336	26.46771	128.3518	7.422897
68.55408	1581.896	26.89353	132.1231	7.542506
68.60802	1588.678	27.3301	135.9398	7.66147
68.66197	1595.677	27.77204	139.8007	7.779694
68.71592	1602.889	28.21721	143.7044	7.897136
68.76987	1610.31	28.66571	147.6497	8.013659
68.82381	1617.941	29.1159	151.635	8.129184
68.87776	1625.781	29.56706	155.6588	8.24362
68.93171	1633.837	30.01888	159.7196	8.356839
68.98566	1642.11	30.47199	163.8157	8.468634
69.0396	1650.608	30.92793	167.9451	8.57882
69.09355	1659.338	31.38873	172.1059	8.687092
69.1475	1668.309	31.85733	176.2959	8.793101
69.20145	1677.528	32.3388	180.5127	8.89643
69.25539	1687	32.83815	184.7538	8.996637
69.30934	1696.731	33.35622	189.0164	9.093235
69.36329	1706.725	33.88832	193.2973	9.185702
69.41724	1716.985	34.42904	197.5932	9.273509
69.47118	1727.51	34.97292	201.9007	9.35608
69.52513	1738.298	35.51551	206.2157	9.43282
69.57908	1749.35	36.05239	210.5342	9.503078
69.63303	1760.663	36.581	214.8518	9.566199
69.68697	1772.239	37.10143	219.1635	9.621467
69.74092	1784.078	37.61629	223.4645	9.668155
69.79487	1796.181	38.1313	227.7491	9.705518
69.84882	1808.55	38.65232	232.0116	9.732801
69.90276	1821.185	39.18583	236.2458	9.749234
69.95671	1834.089	39.73715	240.4453	9.754086
70.01066	1847.265	40.30909	244.603	9.746597
70.06461	1860.714	40.90288	248.7119	9.726032
70.11855	1874.436	41.51568	252.7645	9.691612
70.1725	1888.433	42.14199	256.7528	9.642618
70.22645	1902.706	42.77784	260.6691	9.578309
70.2804	1917.254	43.42123	264.5049	9.498011
70.33434	1932.068	44.07179	268.2518	9.401117
70.38829	1947.142	44.7285	271.9012	9.287107
70.44225	1962.469	45.38907	275.4445	9.155578
70.49619	1978.043	46.053	278.873	9.006185
70.55014	1993.859	46.72076	282.1778	8.838746
70.60409	2009.914	47.39027	285.3504	8.653177
70.65804	2026.206	48.05573	288.3822	8.449548
70.71198	2042.74	48.71214	291.2648	8.228005
70.76593	2059.518	49.35437	293.9902	7.988795
70.81988	2076.539	49.9809	296.5505	7.732366
70.87383	2093.8	50.59259	298.9382	7.459111
70.92777	2111.298	51.19287	301.1462	7.169794
70.98172	2129.031	51.78762	303.1676	6.865022
71.03567	2147	52.38097	304.9963	6.545514
71.08961	2165.208	52.97566	306.6266	6.21206
71.14356	2183.654	53.57403	308.0529	5.865554
71.19751	2202.335	54.17851	309.2709	5.506721
71.25146	2221.245	54.79104	310.2763	5.136531
71.3054	2240.377	55.40949	311.0656	4.75595
71.35935	2259.722	56.02992	311.6359	4.365989
71.4133	2279.264	56.64628	311.9847	3.967723
71.46725	2298.986	57.25037	312.1105	3.562251
71.52119	2318.874	57.83096	312.0122	3.150689
71.57514	2338.907	58.37271	311.6895	2.734219
71.62909	2359.065	58.86053	311.1426	2.313908
71.68304	2379.319	59.28508	310.3724	1.890979
71.73698	2399.641	59.64229	309.3805	1.466553
71.79093	2420	59.93523	308.1688	1.041881
71.84488	2440.36	60.17059	306.74	0.6185908
71.89883	2460.69	60.35493	305.097	0.202252
71.95277	2480.958	60.49406	303.2437	0.2357853
72.00672	2501.135	60.59103	301.1837	0.6467564
72.06067	2521.197	60.64434	298.9218	1.05696
72.11462	2541.112	60.64628	296.4626	1.461936
72.16856	2560.848	60.58622	293.8114	1.860397
72.22251	2580.368	60.45407	290.9736	2.25119
72.27646	2599.628	60.24137	287.9551	2.633753
72.33041	2618.587	59.94167	284.762	3.00719
72.38435	2637.206	59.5494	281.4005	3.370765
72.4383	2655.446	59.06264	277.8774	3.723797
72.49225	2673.271	58.48535	274.1993	4.065639
72.5462	2690.647	57.82673	270.3733	4.395679
72.60014	2707.547	57.10028	266.4066	4.713284
72.6541	2723.95	56.32124	262.3067	5.017868
72.70805	2739.844	55.50137	258.0811	5.308848
72.76199	2755.225	54.65242	253.7377	5.585655
72.81594	2770.094	53.78522	249.2843	5.847742
72.86989	2784.455	52.91156	244.7293	6.094558
72.92384	2798.31	52.04215	240.0808	6.325556
72.97778	2811.662	51.1832	235.3474	6.540206
73.03173	2824.512	50.33691	230.5377	6.738015
73.08568	2836.862	49.50393	225.6603	6.918528
73.13963	2848.712	48.68425	220.7243	7.081184
73.19357	2860.063	47.87452	215.7385	7.225645
73.24752	2870.924	47.06863	210.7121	7.351531
73.30147	2881.297	46.26437	205.6542	7.458537
73.35542	2891.189	45.46395	200.574	7.546465
73.40936	2900.607	44.67358	195.4807	7.615143
73.46331	2909.565	43.90242	190.3837	7.664565
73.51726	2918.082	43.16108	185.2919	7.694783
73.57121	2926.177	42.45627	180.2147	7.705967
73.62515	2933.875	41.79202	175.1609	7.69842
73.6791	2941.208	41.16615	170.1394	7.672544
73.73305	2948.204	40.57226	165.1589	7.628861
73.78699	2954.892	40.00412	160.2279	7.567948
73.84094	2961.295	39.4603	155.3547	7.490472
73.89489	2967.428	38.94187	150.5471	7.397167
73.94884	2973.3	38.45182	145.8128	7.288805
74.00278	2978.923	37.99277	141.1591	7.166193
74.05673	2984.317	37.56663	136.5928	7.030169
74.11068	2989.506	37.17231	132.1201	6.881638
74.16463	2994.511	36.80494	127.747	6.721334
74.21857	2999.348	36.46073	123.4788	6.550409
74.27252	3004.032	36.13475	119.3203	6.369809
74.32647	3008.576	35.82151	115.2755	6.180605
74.38042	3012.99	35.52149	111.3479	5.983949
74.43436	3017.284	35.2425	107.5406	5.781103
74.48831	3021.468	34.99214	103.8556	5.573127
74.54226	3025.555	34.78042	100.2945	5.361325
74.59621	3029.554	34.61522	96.85841	5.146959
74.65015	3033.471	34.49473	93.54755	4.931274
74.7041	3037.307	34.41391	90.36172	4.715497
74.75805	3041.06	34.36332	87.30009	4.500861
74.812	3044.726	34.33265	84.36134	4.288562
74.86595	3048.302	34.31284	81.54369	4.07972
74.9199	3051.785	34.29512	78.84486	3.875411
74.97385	3055.176	34.27381	76.26221	3.676628
75.02779	3058.474	34.24663	73.79272	3.484261
75.08174	3061.679	34.2171	71.43307	3.299064
75.13569	3064.793	34.1897	69.17963	3.121664
75.18964	3067.82	34.1694	67.02857	2.95253
75.24358	3070.766	34.16129	64.97587	2.791945
75.29753	3073.636	34.16895	63.01742	2.640218
75.35148	3076.433	34.19317	61.14897	2.497375
75.40543	3079.159	34.23537	59.36624	2.363402
75.45937	3081.816	34.29393	57.66494	2.238209
75.51332	3084.4	34.36113	56.04082	2.121698
75.56727	3086.913	34.42779	54.48958	2.0136
75.62122	3089.358	34.49221	53.0071	1.913762
75.67516	3091.739	34.55033	51.58928	1.822007
75.72911	3094.057	34.59386	50.23226	1.738151
75.78306	3096.32	34.61561	48.93229	1.662035
75.83701	3098.537	34.61292	47.68584	1.593534
75.89095	3100.713	34.58762	46.48958	1.532563
75.9449	3102.85	34.54493	45.34037	1.479067
75.99885	3104.949	34.49101	44.23524	1.433018
76.0528	3107.01	34.43355	43.17146	1.394385
76.10674	3109.036	34.37831	42.14644	1.363131
76.16069	3111.028	34.33078	41.15781	1.339181
76.21464	3112.996	34.29443	40.20336	1.322416
76.26859	3114.95	34.26494	39.28105	1.312651
76.32253	3116.894	34.23794	38.38898	1.309618
76.37648	3118.829	34.20868	37.52543	1.313025
76.43043	3120.751	34.16639	36.68877	1.322463
76.48438	3122.653	34.10415	35.87749	1.337468
76.53832	3124.525	34.01926	35.09018	1.357509
76.59227	3126.357	33.91264	34.32546	1.382022
76.64622	3128.14	33.78971	33.58204	1.41039
76.70016	3129.871	33.65945	32.85869	1.442052
76.75411	3131.55	33.52885	32.15427	1.476486
76.80806	3133.176	33.40253	31.46773	1.513247
76.86201	3134.75	33.28101	30.7981	1.551975
76.91595	3136.281	33.16324	30.14447	1.592417
76.9699	3137.775	33.05096	29.50607	1.634405
77.02385	3139.237	32.9455	28.88217	1.677855
77.0778	3140.67	32.8456	28.27215	1.722726
77.13175	3142.078	32.75089	27.67549	1.769028
77.1857	3143.459	32.65793	27.09177	1.816806
77.23965	3144.81	32.5634	26.52069	1.866135
77.29359	3146.124	32.45849	25.96201	1.917118
77.34754	3147.396	32.33947	25.4156	1.969882
77.40149	3148.624	32.20945	24.88139	2.024565
77.45544	3149.803	32.07089	24.35942	2.081321
77.50938	3150.933	31.92323	23.84976	2.14029
77.56333	3152.015	31.76771	23.35254	2.201602
77.61728	3153.055	31.60884	22.86791	2.265373
77.67123	3154.056	31.45194	22.39609	2.331692
77.72517	3155.025	31.3023	21.93731	2.400619
77.77912	3155.972	31.16142	21.49184	2.472167
77.83307	3156.909	31.02838	21.05999	2.546297
77.88702	3157.849	30.90554	20.64212	2.622901
77.94096	3158.804	30.79366	20.23853	2.701812
77.99491	3159.787	30.6912	19.84959	2.782787
78.04886	3160.804	30.59387	19.47561	2.86552
78.10281	3161.844	30.49705	19.11692	2.949639
78.15675	3162.896	30.39812	18.77381	3.034695
78.2107	3163.947	30.29402	18.44658	3.120171
78.26465	3164.986	30.18681	18.13546	3.20549
78.3186	3166.007	30.08377	17.84067	3.29003
78.37254	3167.008	29.99103	17.56232	3.373148
78.42649	3167.986	29.91414	17.30049	3.454196
78.48044	3168.939	29.85877	17.05516	3.532514
78.53439	3169.861	29.83064	16.82623	3.60744
78.58833	3170.75	29.83315	16.61349	3.678328
78.64228	3171.607	29.86979	16.41665	3.744481
78.69623	3172.432	29.93936	16.23527	3.805272
78.75018	3173.221	30.03489	16.06885	3.860103
78.80412	3173.969	30.14454	15.91683	3.908453
78.85807	3174.67	30.25156	15.7786	3.94988
78.91202	3175.323	30.34122	15.65357	3.98404
78.96597	3175.927	30.39838	15.54114	4.010683
79.01991	3176.481	30.41305	15.44076	4.029651
79.07386	3176.99	30.38694	15.35192	4.040872
79.12781	3177.458	30.32919	15.2742	4.044364
79.18176	3177.891	30.25443	15.20725	4.040241
79.2357	3178.294	30.17618	15.15084	4.028702
79.28966	3178.672	30.10291	15.10485	4.010029
79.34361	3179.034	30.04363	15.06924	3.984573
79.39755	3179.394	30.00746	15.04407	3.95273
79.4515	3179.767	29.99816	15.0295	3.914933
79.50545	3180.168	30.01359	15.02573	3.871634
79.55939	3180.605	30.04786	15.03305	3.823288
79.61334	3181.088	30.09339	15.05176	3.77036
79.66729	3181.623	30.1434	15.08224	3.713331
79.72124	3182.22	30.18976	15.12484	3.652692
79.77518	3182.887	30.22641	15.17994	3.588939
79.82913	3183.616	30.25323	15.24789	3.52256
79.88308	3184.401	30.27327	15.32902	3.454024
79.93703	3185.237	30.29415	15.42356	3.383776
79.99097	3186.119	30.3267	15.53172	3.312237
80.04492	3187.043	30.38092	15.65358	3.239823
80.09887	3188	30.46332	15.78916	3.166917
80.15282	3188.978	30.57668	15.93836	3.093907
80.20676	3189.967	30.72282	16.10099	3.021121
80.26071	3190.964	30.90321	16.27677	2.948874
80.31466	3191.97	31.11391	16.4653	2.877457
80.36861	3192.989	31.34272	16.66604	2.807143
80.42255	3194.022	31.57824	16.87835	2.738176
80.4765	3195.065	31.81142	17.10143	2.670776
80.53045	3196.113	32.03022	17.33433	2.605134
80.5844	3197.157	32.22528	17.57598	2.541409
80.63834	3198.192	32.39586	17.82515	2.479721
80.69229	3199.217	32.54472	18.08047	2.420152
80.74624	3200.23	32.67448	18.34043	2.362733
80.80019	3201.231	32.78769	18.60336	2.307455
80.85413	3202.216	32.89194	18.86751	2.254273
80.90808	3203.177	32.99271	19.13104	2.203115
80.96203	3204.112	33.09406	19.39208	2.153898
81.01598	3205.023	33.19844	19.64875	2.106519
81.06992	3205.917	33.30524	19.89916	2.060863
81.12387	3206.798	33.41365	20.14147	2.016801
81.17782	3207.67	33.52438	20.37389	1.974196
81.23177	3208.54	33.63304	20.59468	1.932902
81.28571	3209.414	33.73062	20.80223	1.892779
81.33966	3210.305	33.80944	20.99503	1.853703
81.39361	3211.22	33.86391	21.17171	1.815548
81.44756	3212.171	33.89122	21.33108	1.778198
81.5015	3213.17	33.89561	21.47208	1.741536
81.55546	3214.224	33.887	21.59388	1.705453
81.60941	3215.328	33.87431	21.69584	1.669839
81.66335	3216.484	33.85977	21.77754	1.634617
81.7173	3217.694	33.84238	21.83875	1.599762
81.77125	3218.958	33.82291	21.87936	1.565302
81.8252	3220.278	33.80335	21.89941	1.531311
81.87914	3221.651	33.78479	21.89902	1.4979
81.93309	3223.078	33.76852	21.87836	1.465203
81.98704	3224.558	33.75464	21.83765	1.43339
82.04099	3226.09	33.74232	21.77716	1.402657
82.09493	3227.67	33.72919	21.6972	1.373212
82.14888	3229.294	33.70964	21.59803	1.345278
82.20283	3230.956	33.68149	21.47992	1.319098
82.25677	3232.648	33.64519	21.34308	1.294936
82.31072	3234.361	33.60148	21.18772	1.273092
82.36467	3236.088	33.5555	21.01398	1.253901
82.41862	3237.821	33.5149	20.822	1.237685
82.47256	3239.55	33.48163	20.61182	1.224807
82.52651	3241.261	33.45486	20.38347	1.215623
82.58046	3242.943	33.43697	20.13691	1.210472
82.63441	3244.585	33.4355	19.87207	1.209671
82.68835	3246.18	33.45456	19.58885	1.213485
82.7423	3247.721	33.49392	19.28702	1.222129
82.79625	3249.208	33.55129	18.96631	1.235762
82.8502	3250.641	33.62316	18.62633	1.254479
82.90414	3252.023	33.70551	18.26661	1.278318
82.95809	3253.357	33.79261	17.8866	1.307232
83.01204	3254.646	33.87948	17.48572	1.34112
83.06599	3255.89	33.96306	17.06333	1.379786
83.11993	3257.089	34.04598	16.61875	1.423009
83.17388	3258.238	34.1343	16.15129	1.470462
83.22783	3259.332	34.23408	15.66029	1.521797
83.28178	3260.368	34.34484	15.14509	1.576609
83.33572	3261.341	34.45892	14.60508	1.634471
83.38967	3262.241	34.56973	14.03976	1.69491
83.44362	3263.073	34.67246	13.44873	1.757422
83.49757	3263.844	34.76413	12.83174	1.821471
83.55151	3264.558	34.84565	12.18868	1.886492
83.60546	3265.215	34.91899	11.51965	1.951917
83.65941	3265.817	34.98458	10.82493	2.017167
83.71336	3266.363	35.04	10.10499	2.081675
83.76731	3266.854	35.0813	9.360463	2.144886
83.82126	3267.286	35.10309	8.592117	2.206262
83.87521	3267.658	35.103	7.800836	2.265287
83.92915	3267.97	35.08578	6.98762	2.321485
83.9831	3268.227	35.05819	6.15358	2.374433
84.03705	3268.433	35.0277	5.29991	2.423762
84.091	3268.595	34.99848	4.427904	2.46918
84.14494	3268.724	34.97121	3.538916	2.510473
84.19889	3268.83	34.94589	2.634327	2.547519
84.25284	3268.923	34.92699	1.715507	2.580277
84.30679	3269.007	34.92093	0.7838367	2.608794
84.36073	3269.079	34.9314	-0.1593229	2.633186
84.41468	3269.132	34.95447	-1.112599	2.653639
84.46863	3269.156	34.98296	-2.074615	2.6704
84.52258	3269.151	35.00733	-3.043975	2.683777
84.57652	3269.12	35.02157	-4.019286	2.694123
84.63047	3269.063	35.0211	-4.999142	2.701814
84.68442	3268.979	35.00406	-5.982169	2.707266
84.73837	3268.862	34.97213	-6.967012	2.710914
84.79231	3268.706	34.93322	-7.952372	2.713219
84.84626	3268.507	34.89946	-8.937007	2.714671
84.90021	3268.264	34.88023	-9.919757	2.715781
84.95415	3267.974	34.88168	-10.89954	2.717079
85.0081	3267.637	34.90534	-11.87538	2.719098
85.06205	3267.252	34.94976	-12.84641	2.722352
85.116	3266.815	35.01217	-13.81188	2.72732
85.16994	3266.321	35.09313	-14.77117	2.73443
85.22389	3265.762	35.19241	-15.72377	2.744044
85.27784	3265.127	35.30197	-16.6693	2.756445
85.33179	3264.401	35.41591	-17.60744	2.771821
85.38573	3263.568	35.53089	-18.53799	2.790272
85.43968	3262.616	35.64286	-19.46078	2.811821
85.49363	3261.538	35.75519	-20.37569	2.836411
85.54758	3260.331	35.8748	-21.28263	2.863921
85.60152	3259.002	36.01063	-22.1815	2.894175
85.65547	3257.562	36.17052	-23.07223	2.926929
85.70942	3256.031	36.3582	-23.9547	2.961886
85.76337	3254.433	36.56765	-24.82882	2.998687
85.81731	3252.785	36.78983	-25.69446	3.036918
85.87126	3251.101	37.01717	-26.55148	3.076097
85.92521	3249.382	37.24466	-27.39972	3.115678
85.97916	3247.625	37.46721	-28.23899	3.155059
86.03311	3245.823	37.68169	-29.0691	3.193587
86.08706	3243.969	37.88432	-29.88979	3.230584
86.14101	3242.055	38.07049	-30.70079	3.265362
86.19495	3240.081	38.23784	-31.50179	3.297254
86.2489	3238.049	38.38837	-32.29249	3.325613
86.30285	3235.963	38.52614	-33.07256	3.349841
86.3568	3233.821	38.65528	-33.84168	3.369393
86.41074	3231.618	38.7779	-34.59953	3.383811
86.46469	3229.352	38.89114	-35.34579	3.392696
86.51864	3227.03	38.98747	-36.08015	3.395764
86.57259	3224.661	39.05528	-36.80229	3.392822
86.62653	3222.262	39.08685	-37.51192	3.383771
86.68048	3219.85	39.07994	-38.20877	3.368617
86.73443	3217.436	39.03715	-38.89259	3.347447
86.78838	3215.024	38.96651	-39.56312	3.320442
86.84232	3212.613	38.87899	-40.22009	3.287845
86.89627	3210.197	38.78519	-40.86322	3.25001
86.95022	3207.77	38.69608	-41.49225	3.207345
87.00417	3205.329	38.6219	-42.10693	3.16034
87.05811	3202.874	38.56972	-42.70706	3.109552
87.11206	3200.405	38.54633	-43.29251	3.055595
87.16601	3197.923	38.55615	-43.8632	2.999122
87.21996	3195.43	38.59473	-44.41914	2.940801
87.2739	3192.928	38.65468	-44.96036	2.881303
87.32785	3190.421	38.72503	-45.48697	2.821264
87.3818	3187.91	38.78951	-45.99916	2.761309
87.43575	3185.398	38.83593	-46.49718	2.702033
87.48969	3182.887	38.86015	-46.98133	2.644005
87.54364	3180.376	38.86554	-47.45195	2.587747
87.59759	3177.857	38.86021	-47.90945	2.533718
87.65154	3175.321	38.85285	-48.35425	2.482332
87.70548	3172.76	38.85136	-48.78677	2.433923
87.75943	3170.168	38.86462	-49.20745	2.388775
87.81338	3167.547	38.90309	-49.61672	2.347107
87.86732	3164.9	38.97587	-50.015	2.309087
87.92127	3162.229	39.08383	-50.40267	2.274825
87.97522	3159.539	39.22059	-50.78012	2.244381
88.02917	3156.834	39.37437	-51.14766	2.217767
88.08311	3154.118	39.53085	-51.50561	2.194931
88.13706	3151.385	39.67725	-51.85422	2.175753
88.19102	3148.635	39.80487	-52.19372	2.160044
88.24496	3145.869	39.90737	-52.52434	2.147556
88.29891	3143.09	39.98658	-52.84627	2.138
88.35286	3140.29	40.05209	-53.15965	2.131048
88.40681	3137.462	40.11825	-53.46461	2.126353
88.46075	3134.595	40.19766	-53.76128	2.123532
88.5147	3131.68	40.29596	-54.04972	2.122212
88.56865	3128.716	40.41305	-54.33005	2.122015
88.6226	3125.705	40.54566	-54.60235	2.122602
88.67654	3122.65	40.6866	-54.86673	2.123651
88.73049	3119.561	40.82827	-55.12326	2.124902
88.78444	3116.447	40.96053	-55.37207	2.126138
88.83839	3113.318	41.07141	-55.61326	2.127169
88.89233	3110.178	41.15221	-55.8469	2.127827
88.94628	3107.03	41.1963	-56.07306	2.127964
89.00023	3103.871	41.20129	-56.29182	2.127437
89.05418	3100.705	41.17137	-56.50328	2.12613
89.10812	3097.534	41.11693	-56.70756	2.123957
89.16207	3094.354	41.04663	-56.90479	2.12085
89.21602	3091.158	40.97017	-57.0951	2.116757
89.26997	3087.943	40.89787	-57.27859	2.111646
89.32391	3084.702	40.84061	-57.45539	2.105516
89.37786	3081.431	40.80285	-57.62559	2.098388
89.43181	3078.128	40.78299	-57.78933	2.090306
89.48576	3074.796	40.77628	-57.94673	2.081357
89.5397	3071.436	40.77859	-58.09794	2.071632
89.59365	3068.055	40.7837	-58.24313	2.061243
89.6476	3064.661	40.78516	-58.38248	2.050294
89.70155	3061.261	40.77811	-58.51618	2.038902
89.75549	3057.859	40.76164	-58.64443	2.027166
89.80944	3054.468	40.74218	-58.76743	2.015195
89.86339	3051.09	40.72705	-58.8854	2.003115
89.91734	3047.729	40.7253	-58.99853	1.991061
89.97128	3044.386	40.7458	-59.10703	1.979171
90.02523	3041.062	40.79539	-59.21106	1.967606
90.07918	3037.754	40.87514	-59.31079	1.95654
90.13313	3034.46	40.98289	-59.40638	1.946154
90.18707	3031.175	41.11128	-59.49799	1.936632
90.24102	3027.896	41.25222	-59.58581	1.928164
90.29497	3024.624	41.39743	-59.67006	1.920934
90.34892	3021.356	41.54178	-59.75095	1.915107
90.40287	3018.09	41.68293	-59.82875	1.910808
90.45682	3014.827	41.81792	-59.90372	1.908108
90.51077	3011.572	41.94752	-59.97615	1.907008
90.56471	3008.338	42.07541	-60.04633	1.907442
90.61866	3005.134	42.20789	-60.11457	1.909265
90.67261	3001.967	42.35037	-60.18115	1.912277
90.72655	2998.838	42.50654	-60.24637	1.916248
90.7805	2995.741	42.67587	-60.31053	1.92092
90.83445	2992.671	42.85743	-60.3739	1.926022
90.8884	2989.62	43.04988	-60.43674	1.931272
90.94234	2986.58	43.25022	-60.4993	1.936378
90.99629	2983.544	43.45311	-60.56179	1.941074
91.05024	2980.506	43.65159	-60.62443	1.945134
91.10419	2977.456	43.83844	-60.68744	1.948354
91.15813	2974.391	44.0078	-60.75103	1.950555
91.21208	2971.308	44.15505	-60.8154	1.951573
91.26603	2968.203	44.28188	-60.88073	1.951282
91.31998	2965.068	44.39693	-60.94718	1.949577
91.37392	2961.897	44.50641	-61.01488	1.946367
91.42787	2958.691	44.61008	-61.08392	1.941568
91.48182	2955.457	44.70412	-61.15437	1.935104
91.53577	2952.203	44.78574	-61.22631	1.926893
91.58971	2948.933	44.85426	-61.2998	1.916863
91.64366	2945.648	44.90961	-61.37487	1.90494
91.69761	2942.347	44.94918	-61.45152	1.891079
91.75156	2939.033	44.96871	-61.52973	1.875246
91.8055	2935.708	44.96263	-61.60945	1.857429
91.85945	2932.375	44.92832	-61.69059	1.837652
91.9134	2929.029	44.86421	-61.77304	1.815958
91.96735	2925.671	44.77435	-61.85663	1.792431
92.02129	2922.303	44.66679	-61.94118	1.767174
92.07524	2918.93	44.55502	-62.02645	1.740334
92.12919	2915.554	44.45267	-62.1122	1.712077
92.18314	2912.177	44.3709	-62.19814	1.682606
92.23708	2908.802	44.31791	-62.28399	1.65217
92.29103	2905.426	44.29469	-62.36943	1.621041
92.34498	2902.048	44.29931	-62.45417	1.589506
92.39893	2898.657	44.32942	-62.53783	1.557941
92.45287	2895.25	44.38077	-62.59018	1.536202
92.50682	2891.817	44.44957	-62.6366	1.513253
92.56077	2888.364	44.53355	-62.679	1.489547
92.61472	2884.893	44.62978	-62.71905	1.465512
92.66867	2881.409	44.73351	-62.75794	1.441459
92.72262	2877.914	44.83968	-62.7964	1.417619
92.77657	2874.405	44.94401	-62.83482	1.39414
92.83051	2870.885	45.04457	-62.87339	1.371105
92.88446	2867.359	45.14212	-62.91218	1.348576
92.93841	2863.824	45.24094	-62.95116	1.326575
92.99236	2860.281	45.34594	-62.99027	1.305101
93.0463	2856.722	45.45619	-63.02945	1.284152
93.10025	2853.148	45.56814	-63.06861	1.263717
93.1542	2849.561	45.6765	-63.10766	1.243765
93.20815	2845.971	45.77476	-63.14651	1.224283
93.26209	2842.383	45.8629	-63.18512	1.205249
93.31604	2838.802	45.94476	-63.22338	1.186633
93.36999	2835.229	46.024	-63.26124	1.168408
93.42393	2831.673	46.09938	-63.29863	1.150551
93.47788	2828.133	46.16663	-63.33548	1.133024
93.53183	2824.612	46.22391	-63.37175	1.115805
93.58578	2821.109	46.27485	-63.40737	1.09887
93.63972	2817.624	46.3256	-63.44229	1.082185
93.69367	2814.156	46.37952	-63.47646	1.065724
93.74762	2810.707	46.43664	-63.50983	1.049467
93.80157	2807.271	46.49958	-63.54237	1.03338
93.85551	2803.852	46.57162	-63.57401	1.017442
93.90946	2800.451	46.65234	-63.60472	1.001629
93.96341	2797.071	46.73391	-63.63447	0.9859204
94.01736	2793.706	46.80777	-63.66322	0.970288
94.0713	2790.354	46.84797	-63.69094	0.9547269
94.12525	2786.995	46.84555	-63.71762	0.9392108
94.1792	2783.63	46.82511	-63.74322	0.9237311
94.23315	2780.261	46.79902	-63.76773	0.9082845
94.28709	2776.889	46.77193	-63.79115	0.8928611
94.34104	2773.514	46.74579	-63.81345	0.8774574
94.39499	2770.137	46.72113	-63.83465	0.8620777
94.44894	2766.758	46.69794	-63.85474	0.8467272
94.50288	2763.376	46.67658	-63.87371	0.8314071
94.55683	2759.993	46.65593	-63.89158	0.816132
94.61078	2756.608	46.63525	-63.90836	0.8009081
94.66473	2753.223	46.61327	-63.92405	0.7857615
94.71867	2749.838	46.58958	-63.93868	0.7707026
94.77262	2746.453	46.56305	-63.95226	0.7557547
94.82658	2743.069	46.5328	-63.96481	0.7409427
94.88052	2739.685	46.49805	-63.97635	0.7262944
94.93447	2736.301	46.45823	-63.98691	0.7118379
94.98842	2732.915	46.41316	-63.99652	0.6976101
