T[Â°C]	350nm [counts / mm]	S.D.	First derivative	S.D. of first derivative
19.99944	6908.911	24.19184	-99.42979	2.928494
20.05342	6903.543	24.06163	-99.39339	2.854944
20.10741	6898.173	23.94273	-99.35696	2.781976
20.1614	6892.798	23.8361	-99.32051	2.709617
20.21539	6887.419	23.74147	-99.28403	2.637873
20.26938	6882.039	23.65825	-99.24754	2.566763
20.32337	6876.656	23.58576	-99.21103	2.4963
20.37736	6871.272	23.52333	-99.1745	2.426507
20.43135	6865.887	23.4694	-99.13797	2.357399
20.48534	6860.502	23.42274	-99.10144	2.288991
20.53933	6855.118	23.38132	-99.06493	2.221307
20.59332	6849.733	23.34203	-99.02842	2.15436
20.64731	6844.351	23.30288	-98.99193	2.088179
20.7013	6838.968	23.26252	-98.95547	2.022783
20.75529	6833.588	23.22017	-98.91906	1.958196
20.80928	6828.21	23.17636	-98.88268	1.89444
20.86327	6822.832	23.13567	-98.84635	1.831548
20.91726	6817.448	23.11146	-98.81008	1.769549
20.97124	6812.037	23.13597	-98.77387	1.708481
21.02523	6806.622	23.15727	-98.73773	1.648388
21.07922	6801.215	23.18798	-98.70167	1.589303
21.13321	6795.826	23.22812	-98.66569	1.531291
21.1872	6790.458	23.27349	-98.62978	1.474412
21.24119	6785.109	23.32129	-98.59398	1.418744
21.29518	6779.773	23.36458	-98.55827	1.364377
21.34917	6774.449	23.39095	-98.52264	1.311424
21.40316	6769.133	23.38503	-98.48711	1.260012
21.45715	6763.819	23.33511	-98.45168	1.210294
21.51114	6758.502	23.23997	-98.41631	1.16245
21.56513	6753.181	23.10641	-98.38103	1.116693
21.61912	6747.862	22.93789	-98.34582	1.073261
21.67311	6742.552	22.73408	-98.31065	1.032436
21.7271	6737.25	22.49616	-98.27552	0.9945042
21.78109	6731.955	22.22617	-98.2404	0.9598063
21.83508	6726.666	21.92447	-98.20527	0.928677
21.88906	6721.38	21.59616	-98.17009	0.9014734
21.94305	6716.097	21.25124	-98.13483	0.8785303
21.99704	6710.819	20.90484	-98.09946	0.8601463
22.05103	6705.549	20.57394	-98.06391	0.8465906
22.10502	6700.289	20.27316	-98.02814	0.8380347
22.15901	6695.037	20.00979	-97.9921	0.8345691
22.213	6689.794	19.78495	-97.9557	0.8361671
22.26699	6684.562	19.59466	-97.91889	0.8426387
22.32098	6679.336	19.43191	-97.88155	0.8536286
22.37497	6674.111	19.29103	-97.84357	0.8685237
22.42896	6668.877	19.16762	-97.80482	0.886364
22.48295	6663.632	19.05692	-97.76514	0.9057322
22.53694	6658.38	18.94916	-97.72441	0.9246667
22.59093	6653.119	18.84131	-97.68253	0.9408278
22.64492	6647.853	18.74114	-97.64029	0.9006781
22.69891	6642.583	18.65667	-97.59837	0.8574622
22.7529	6637.313	18.59842	-97.55707	0.8116248
22.80688	6632.048	18.57588	-97.5167	0.7636375
22.86087	6626.793	18.59382	-97.47756	0.7140397
22.91486	6621.548	18.65628	-97.43994	0.6634028
22.96885	6616.308	18.76346	-97.40408	0.6123438
23.02284	6611.066	18.91531	-97.37019	0.5615442
23.07683	6605.82	19.1082	-97.33844	0.5117168
23.13082	6600.566	19.33491	-97.30892	0.463614
23.18481	6595.299	19.58799	-97.2817	0.4180473
23.2388	6590.009	19.86284	-97.25674	0.375848
23.29279	6584.693	20.15104	-97.23393	0.337907
23.34678	6579.355	20.43946	-97.21311	0.3051198
23.40077	6574.002	20.71499	-97.19405	0.2783707
23.45476	6568.643	20.96809	-97.17648	0.2583792
23.50875	6563.285	21.19416	-97.16012	0.2456022
23.56274	6557.936	21.38971	-97.14466	0.2400609
23.61673	6552.604	21.54801	-97.12981	0.241374
23.67072	6547.296	21.66796	-97.1152	0.2488899
23.72471	6542.021	21.75018	-97.10049	0.2619367
23.7787	6536.785	21.79664	-97.08523	0.2800083
23.83269	6531.592	21.80481	-97.06898	0.302799
23.88667	6526.439	21.77185	-97.05134	0.3301882
23.94066	6521.32	21.69863	-97.03182	0.3621471
23.99465	6516.217	21.59278	-97.01003	0.3986549
24.04864	6511.11	21.47069	-96.98557	0.4396535
24.10263	6505.982	21.35489	-96.9581	0.4849823
24.15662	6500.827	21.26699	-96.92734	0.5343935
24.21061	6495.646	21.2232	-96.89305	0.587517
24.2646	6490.45	21.22621	-96.85503	0.6439045
24.31859	6485.249	21.26552	-96.81313	0.7030213
24.37258	6480.05	21.32734	-96.76732	0.7642732
24.42657	6474.861	21.39876	-96.71758	0.8270242
24.48056	6469.685	21.46677	-96.66403	0.8906318
24.53455	6464.522	21.52131	-96.60686	0.9544427
24.58854	6459.372	21.5556	-96.54632	1.017806
24.64253	6454.225	21.56753	-96.48278	1.080076
24.69652	6449.07	21.55263	-96.41666	1.140611
24.75051	6443.901	21.50708	-96.34844	1.198775
24.80449	6438.717	21.43475	-96.27863	1.253982
24.85848	6433.515	21.34246	-96.20774	1.305706
24.91247	6428.29	21.23887	-96.13627	1.353491
24.96646	6423.033	21.13248	-96.06471	1.39697
25.02045	6417.74	21.02804	-95.99356	1.435844
25.07444	6412.418	20.92148	-95.92326	1.469885
25.12843	6407.076	20.80768	-95.85428	1.498898
25.18242	6401.721	20.68341	-95.78699	1.522753
25.23641	6396.359	20.545	-95.72179	1.541385
25.2904	6390.996	20.38965	-95.65897	1.554751
25.34439	6385.639	20.20827	-95.5988	1.562898
25.39838	6380.294	19.98718	-95.54149	1.565921
25.45237	6374.972	19.71521	-95.48717	1.564007
25.50636	6369.675	19.38697	-95.43591	1.557388
25.56035	6364.402	19.00485	-95.38776	1.546399
25.61434	6359.155	18.58221	-95.3427	1.531402
25.66833	6353.928	18.14092	-95.30067	1.512778
25.72231	6348.716	17.70455	-95.26155	1.490888
25.7763	6343.515	17.29653	-95.22514	1.466046
25.83029	6338.328	16.93593	-95.19118	1.438453
25.88428	6333.165	16.63251	-95.15938	1.408199
25.93827	6328.038	16.3814	-95.12937	1.375224
25.99226	6322.947	16.17163	-95.10078	1.339373
26.04625	6317.891	15.99219	-95.07324	1.300417
26.10024	6312.863	15.83283	-95.04636	1.258099
26.15423	6307.855	15.68875	-95.01975	1.21212
26.20822	6302.862	15.5603	-94.99307	1.16222
26.26221	6297.882	15.44398	-94.96597	1.108146
26.3162	6292.918	15.33712	-94.93809	1.049723
26.37019	6287.977	15.24008	-94.90915	0.9868423
26.42418	6283.063	15.15692	-94.87887	0.9195423
26.47817	6278.174	15.09454	-94.84698	0.8480449
26.53216	6273.31	15.06011	-94.81329	0.7728026
26.58615	6268.458	15.06629	-94.77766	0.6945286
26.64013	6263.6	15.12104	-94.74004	0.6142781
26.69412	6258.72	15.22532	-94.70045	0.5335622
26.74811	6253.809	15.37202	-94.65899	0.4545481
26.8021	6248.864	15.54965	-94.61583	0.3805772
26.85609	6243.883	15.74595	-94.57117	0.3170466
26.91008	6238.866	15.95402	-94.52528	0.2724459
26.96407	6233.815	16.1707	-94.47843	0.2568547
27.01806	6228.734	16.38747	-94.43094	0.2742992
27.07205	6223.632	16.60029	-94.38313	0.3178622
27.12604	6218.512	16.80818	-94.33536	0.3768305
27.18003	6213.373	17.0093	-94.28796	0.4432596
27.23402	6208.215	17.2121	-94.24126	0.5124892
27.28801	6203.039	17.42681	-94.19563	0.5818335
27.342	6197.847	17.65925	-94.15138	0.6497059
27.39599	6192.643	17.90976	-94.10883	0.715066
27.44998	6187.439	18.16861	-94.06823	0.7771783
27.50397	6182.239	18.41859	-94.02976	0.835462
27.55795	6177.046	18.64131	-93.99354	0.8894426
27.61194	6171.863	18.82682	-93.95963	0.9386803
27.66593	6166.684	18.97219	-93.92804	0.9827706
27.71992	6161.503	19.08706	-93.89868	1.021347
27.77391	6156.314	19.18684	-93.87141	1.054123
27.8279	6151.117	19.2814	-93.846	1.080903
27.88189	6145.912	19.37593	-93.82221	1.101633
27.93588	6140.705	19.47157	-93.79975	1.116365
27.98987	6135.502	19.56835	-93.77831	1.125272
28.04386	6130.314	19.66391	-93.75757	1.128587
28.09785	6125.146	19.75329	-93.73719	1.126579
28.15184	6119.995	19.83422	-93.71683	1.119558
28.20583	6114.853	19.90477	-93.69611	1.107818
28.25982	6109.713	19.96288	-93.67468	1.091674
28.31381	6104.576	20.00884	-93.65221	1.07141
28.3678	6099.443	20.04498	-93.62836	1.0473
28.42179	6094.324	20.07299	-93.60282	1.019583
28.47577	6089.228	20.09752	-93.57529	0.9884648
28.52976	6084.16	20.12342	-93.54547	0.9541116
28.58375	6079.119	20.14742	-93.51308	0.9166461
28.63774	6074.1	20.16398	-93.47787	0.8761738
28.69173	6069.098	20.16879	-93.43962	0.8328118
28.74572	6064.109	20.15586	-93.39816	0.7866751
28.79971	6059.131	20.11697	-93.35342	0.7379546
28.8537	6054.162	20.05067	-93.30537	0.6869128
28.90769	6049.201	19.96186	-93.2541	0.6339093
28.96168	6044.247	19.8533	-93.19971	0.5794225
29.01567	6039.306	19.72665	-93.14238	0.5240244
29.06966	6034.378	19.58077	-93.08234	0.4684173
29.12365	6029.461	19.41105	-93.01985	0.4134084
29.17764	6024.554	19.21816	-92.95524	0.3599594
29.23163	6019.648	19.00538	-92.88888	0.3092072
29.28562	6014.739	18.77616	-92.82118	0.2625907
29.33961	6009.825	18.53853	-92.75263	0.2219273
29.3936	6004.901	18.31031	-92.68371	0.1895514
29.44759	5999.969	18.10706	-92.61493	0.1680143
29.50158	5995.025	17.92988	-92.54681	0.1589751
29.55556	5990.069	17.77526	-92.47983	0.1616264
29.60955	5985.101	17.63689	-92.41449	0.1727587
29.66354	5980.123	17.50802	-92.35123	0.1885891
29.71753	5975.138	17.3858	-92.29044	0.2062055
29.77152	5970.152	17.27377	-92.23249	0.2237917
29.82551	5965.166	17.17788	-92.17769	0.2403595
29.8795	5960.169	17.10253	-92.12633	0.255448
29.93349	5955.157	17.05199	-92.07867	0.2689232
29.98748	5950.132	17.02834	-92.03494	0.2808473
30.04147	5945.099	17.0348	-91.99534	0.2914135
30.09546	5940.064	17.07548	-91.95998	0.3008854
30.14945	5935.031	17.15108	-91.92895	0.3095553
30.20344	5930.007	17.25623	-91.90221	0.317729
30.25743	5924.997	17.38762	-91.87968	0.3256905
30.31142	5919.999	17.54116	-91.86121	0.3336503
30.36541	5915.012	17.70817	-91.84656	0.3417435
30.4194	5910.041	17.88265	-91.83546	0.3500129
30.47338	5905.086	18.06477	-91.82759	0.3583766
30.52737	5900.145	18.25487	-91.82257	0.366667
30.58136	5895.215	18.4519	-91.81998	0.3745783
30.63535	5890.295	18.65157	-91.81936	0.3817101
30.68934	5885.383	18.84266	-91.8202	0.387565
30.74333	5880.479	19.0099	-91.822	0.3915643
30.79732	5875.58	19.13638	-91.8243	0.3930647
30.85131	5870.681	19.21428	-91.82666	0.3914175
30.9053	5865.774	19.24352	-91.82869	0.3859837
30.95929	5860.857	19.23091	-91.83002	0.3762037
31.01328	5855.933	19.18651	-91.83029	0.3616309
31.06727	5851.004	19.12143	-91.82917	0.3419839
31.12126	5846.077	19.0483	-91.82634	0.317275
31.17525	5841.152	18.97414	-91.82151	0.2878878
31.22924	5836.236	18.90034	-91.81443	0.2548206
31.28323	5831.333	18.82366	-91.80492	0.2201489
31.33722	5826.443	18.74936	-91.79282	0.1879153
31.3912	5821.559	18.68589	-91.77807	0.1655078
31.44519	5816.679	18.6393	-91.7606	0.1630384
31.49918	5811.801	18.61629	-91.74042	0.185993
31.55317	5806.922	18.62247	-91.71761	0.2299025
31.60716	5802.035	18.65785	-91.69225	0.2870783
31.66115	5797.135	18.71927	-91.66451	0.3519331
31.71514	5792.218	18.80278	-91.63451	0.4210663
31.76913	5787.282	18.90256	-91.60244	0.4923128
31.82312	5782.325	19.0124	-91.56852	0.5641702
31.87711	5777.352	19.13261	-91.533	0.6355453
31.9311	5772.363	19.25887	-91.49617	0.7056128
31.98509	5767.365	19.38872	-91.45836	0.7737422
32.03908	5762.361	19.52012	-91.41989	0.8394464
32.09307	5757.348	19.65092	-91.38109	0.9023809
32.14706	5752.324	19.78346	-91.34224	0.9623672
32.20105	5747.292	19.91452	-91.3036	1.019354
32.25504	5742.248	20.03816	-91.26538	1.073407
32.30902	5737.195	20.148	-91.22772	1.124687
32.36301	5732.14	20.23826	-91.19073	1.1734
32.417	5727.087	20.29909	-91.15441	1.219739
32.47099	5722.037	20.32263	-91.11877	1.263872
32.52498	5716.983	20.30592	-91.08373	1.305912
32.57897	5711.919	20.25128	-91.04916	1.345949
32.63296	5706.843	20.15736	-91.01491	1.384017
32.68695	5701.757	20.01885	-90.98077	1.420091
32.74094	5696.672	19.83177	-90.94653	1.454148
32.79493	5691.606	19.58944	-90.912	1.486123
32.84892	5686.576	19.28487	-90.87695	1.515963
32.90291	5681.592	18.918	-90.84119	1.543586
32.9569	5676.66	18.49241	-90.80447	1.568899
33.01089	5671.779	18.0199	-90.76665	1.591791
33.06488	5666.945	17.52199	-90.72752	1.612098
33.11887	5662.146	17.02094	-90.68693	1.629631
33.17286	5657.375	16.53799	-90.64471	1.64415
33.22684	5652.627	16.08749	-90.60078	1.655407
33.28083	5647.89	15.67721	-90.55505	1.663146
33.33482	5643.149	15.3056	-90.50745	1.667131
33.38881	5638.393	14.96975	-90.45796	1.667153
33.4428	5633.617	14.67283	-90.40656	1.663036
33.49679	5628.824	14.41803	-90.35328	1.654641
33.55078	5624.015	14.2057	-90.29825	1.641899
33.60477	5619.197	14.03692	-90.24158	1.624792
33.65876	5614.384	13.91335	-90.18347	1.603398
33.71275	5609.581	13.83428	-90.1241	1.577873
33.76674	5604.791	13.797	-90.06371	1.548454
33.82073	5600.01	13.79907	-90.00256	1.515473
33.87472	5595.234	13.83852	-89.94093	1.479357
33.92871	5590.461	13.91524	-89.87912	1.440614
33.9827	5585.691	14.02691	-89.81742	1.399815
34.03669	5580.916	14.16731	-89.75613	1.357543
34.09068	5576.124	14.336	-89.6955	1.314411
34.14466	5571.304	14.52839	-89.63577	1.271018
34.19865	5566.451	14.7329	-89.57716	1.227951
34.25264	5561.564	14.93717	-89.51984	1.185712
34.30663	5556.653	15.13367	-89.46394	1.14472
34.36062	5551.729	15.31107	-89.40963	1.105301
34.41461	5546.803	15.45672	-89.35701	1.067649
34.4686	5541.885	15.56351	-89.30616	1.031892
34.52259	5536.979	15.63306	-89.2571	0.9980533
34.57658	5532.095	15.67451	-89.20979	0.9661433
34.63057	5527.239	15.69673	-89.16418	0.9361212
34.68456	5522.409	15.70884	-89.12009	0.9079357
34.73855	5517.602	15.71585	-89.07737	0.8815238
34.79254	5512.816	15.7183	-89.03576	0.8568312
34.84653	5508.045	15.7133	-88.99495	0.8338621
34.90052	5503.278	15.69813	-88.95462	0.8127112
34.95451	5498.502	15.67221	-88.91438	0.7935597
35.0085	5493.708	15.64006	-88.87381	0.77669
35.06248	5488.895	15.61245	-88.83249	0.7624996
35.11647	5484.068	15.59637	-88.78997	0.7514644
35.17046	5479.236	15.60181	-88.74585	0.7440891
35.22445	5474.406	15.64014	-88.69971	0.7408464
35.27844	5469.579	15.7119	-88.6512	0.7421118
35.33243	5464.759	15.80798	-88.60001	0.7481138
35.38642	5459.955	15.91844	-88.54588	0.7589158
35.44041	5455.172	16.03462	-88.48859	0.7744009
35.4944	5450.411	16.14824	-88.42802	0.7942978
35.54839	5445.667	16.25333	-88.3641	0.8181658
35.60238	5440.934	16.34526	-88.29682	0.8454425
35.65637	5436.207	16.42418	-88.22624	0.8754785
35.71036	5431.481	16.49529	-88.15248	0.907547
35.76435	5426.748	16.56239	-88.07569	0.9408858
35.81834	5422	16.62584	-87.99607	0.9747257
35.87233	5417.238	16.68435	-87.91384	1.008337
35.92632	5412.47	16.7347	-87.82926	1.041059
35.9803	5407.699	16.76745	-87.74264	1.072337
36.03429	5402.918	16.77316	-87.65429	1.101717
36.08828	5398.122	16.74049	-87.56461	1.128857
36.14227	5393.309	16.66126	-87.47399	1.153522
36.19626	5388.484	16.52958	-87.38286	1.175571
36.25025	5383.66	16.34715	-87.29166	1.194942
36.30424	5378.847	16.12101	-87.20087	1.211603
36.35823	5374.051	15.85669	-87.11092	1.225548
36.41222	5369.272	15.55482	-87.02228	1.236791
36.46621	5364.508	15.21661	-86.93536	1.24538
36.5202	5359.758	14.85157	-86.85056	1.251331
36.57419	5355.023	14.47263	-86.76822	1.254666
36.62818	5350.303	14.09062	-86.68861	1.255386
36.68217	5345.595	13.71813	-86.61195	1.253476
36.73616	5340.898	13.36051	-86.5384	1.248876
36.79015	5336.212	13.02255	-86.46805	1.241471
36.84414	5331.536	12.71072	-86.40092	1.231112
36.89812	5326.86	12.42421	-86.33699	1.217639
36.95211	5322.179	12.16263	-86.27614	1.200908
37.0061	5317.495	11.92413	-86.21819	1.180823
37.06009	5312.817	11.70576	-86.16293	1.157382
37.11408	5308.155	11.50717	-86.11009	1.130667
37.16807	5303.517	11.33019	-86.05938	1.100847
37.22206	5298.905	11.17881	-86.01048	1.068154
37.27605	5294.319	11.06113	-85.96309	1.032885
37.33004	5289.762	10.98446	-85.91692	0.9954032
37.38403	5285.234	10.95456	-85.87172	0.9561103
37.43802	5280.732	10.97295	-85.82728	0.9155011
37.49201	5276.252	11.03657	-85.7834	0.8741186
37.546	5271.787	11.13734	-85.73997	0.832554
37.59999	5267.33	11.26427	-85.69688	0.7914531
37.65398	5262.878	11.40357	-85.65412	0.7514858
37.70797	5258.424	11.54713	-85.61166	0.7133387
37.76196	5253.963	11.68876	-85.56949	0.6777018
37.81594	5249.494	11.82201	-85.52765	0.6452017
37.86993	5245.018	11.94437	-85.48618	0.6163961
37.92392	5240.539	12.05237	-85.44513	0.5917527
37.97791	5236.056	12.14783	-85.4046	0.5716451
38.0319	5231.566	12.23072	-85.36471	0.5563173
38.08589	5227.064	12.30178	-85.32557	0.5458549
38.13988	5222.551	12.36632	-85.28736	0.5401632
38.19387	5218.026	12.4298	-85.25029	0.5389247
38.24786	5213.491	12.49992	-85.21459	0.5416606
38.30185	5208.948	12.57865	-85.18049	0.5477321
38.35584	5204.397	12.66313	-85.14822	0.5564133
38.40983	5199.832	12.75024	-85.118	0.5669373
38.46382	5195.249	12.83759	-85.09003	0.5785599
38.51781	5190.645	12.92413	-85.06449	0.5905967
38.5718	5186.014	13.00664	-85.04147	0.602412
38.62579	5181.352	13.08745	-85.02104	0.6134915
38.67978	5176.654	13.16468	-85.00326	0.6234114
38.73376	5171.921	13.23349	-84.98808	0.6318921
38.78776	5167.16	13.29548	-84.97543	0.6387177
38.84175	5162.382	13.35434	-84.96519	0.6437601
38.89574	5157.595	13.41584	-84.9571	0.6469115
38.94973	5152.812	13.48375	-84.9509	0.6480854
39.00372	5148.041	13.55536	-84.94625	0.6472082
39.0577	5143.288	13.6301	-84.94279	0.644236
39.11169	5138.552	13.70867	-84.94011	0.6391426
39.16568	5133.835	13.78549	-84.93784	0.6319566
39.21967	5129.139	13.85209	-84.93557	0.6227598
39.27366	5124.467	13.90036	-84.93288	0.6117105
39.32765	5119.826	13.92481	-84.92933	0.5990825
39.38164	5115.218	13.92283	-84.9245	0.5852755
39.43563	5110.644	13.89791	-84.91798	0.5708874
39.48962	5106.096	13.85296	-84.90936	0.5567183
39.54361	5101.564	13.78395	-84.89831	0.5437592
39.5976	5097.041	13.68612	-84.88453	0.5331628
39.65159	5092.518	13.55302	-84.86778	0.5261074
39.70558	5087.995	13.38318	-84.84786	0.523676
39.75957	5083.476	13.17646	-84.82462	0.5267179
39.81356	5078.963	12.93615	-84.79798	0.5356733
39.86755	5074.459	12.67163	-84.76793	0.5505322
39.92154	5069.96	12.39032	-84.73447	0.5708246
39.97552	5065.466	12.09827	-84.69769	0.5957009
40.02951	5060.971	11.79517	-84.6577	0.6240752
40.0835	5056.47	11.48717	-84.61467	0.6547152
40.13749	5051.961	11.17889	-84.56882	0.6863634
40.19148	5047.442	10.87652	-84.52046	0.7178065
40.24547	5042.91	10.58695	-84.46992	0.7479588
40.29946	5038.359	10.31663	-84.41757	0.7758836
40.35345	5033.789	10.07347	-84.36385	0.8008301
40.40744	5029.199	9.868034	-84.30919	0.8222483
40.46143	5024.596	9.702662	-84.25403	0.8397568
40.51542	5019.991	9.578321	-84.19883	0.8531179
40.56941	5015.392	9.491986	-84.144	0.8622655
40.6234	5010.803	9.43641	-84.08997	0.8672155
40.67739	5006.224	9.401305	-84.03713	0.868076
40.73138	5001.647	9.38012	-83.98583	0.8650091
40.78537	4997.066	9.37176	-83.93637	0.8582326
40.83936	4992.478	9.375259	-83.88902	0.8480054
40.89334	4987.883	9.395654	-83.84397	0.8346691
40.94733	4983.282	9.438881	-83.80134	0.8186148
41.00132	4978.68	9.510555	-83.76118	0.8002853
41.05531	4974.083	9.619385	-83.7235	0.780161
41.1093	4969.495	9.776392	-83.68822	0.7587738
41.16329	4964.92	9.989938	-83.65524	0.7366894
41.21728	4960.363	10.26194	-83.62436	0.7144903
41.27127	4955.831	10.58436	-83.59536	0.6927472
41.32526	4951.331	10.93827	-83.56802	0.6720474
41.37925	4946.868	11.30575	-83.54207	0.6528822
41.43324	4942.441	11.66654	-83.51725	0.6356378
41.48723	4938.046	11.99916	-83.49331	0.6205049
41.54122	4933.68	12.29127	-83.47	0.6074277
41.59521	4929.331	12.5346	-83.4471	0.5960563
41.6492	4924.985	12.72374	-83.42436	0.5857688
41.70319	4920.624	12.85727	-83.40159	0.5757203
41.75718	4916.236	12.93683	-83.37856	0.564926
41.81116	4911.816	12.9678	-83.35509	0.5523278
41.86515	4907.365	12.95678	-83.33101	0.5369019
41.91914	4902.889	12.91474	-83.30611	0.5177093
41.97313	4898.398	12.84496	-83.28023	0.4939343
42.02712	4893.897	12.75163	-83.25318	0.4649586
42.08111	4889.395	12.64019	-83.22485	0.4304006
42.1351	4884.897	12.51236	-83.19509	0.3901486
42.18909	4880.411	12.37368	-83.16386	0.3444923
42.24308	4875.941	12.23072	-83.13117	0.2942681
42.29707	4871.488	12.09256	-83.09704	0.2412364
42.35106	4867.046	11.97083	-83.06155	0.1891532
42.40505	4862.606	11.87417	-83.02478	0.1466955
42.45904	4858.163	11.8076	-82.98686	0.1314379
42.51303	4853.712	11.77103	-82.94787	0.1562816
42.56702	4849.249	11.75806	-82.90792	0.2091224
42.62101	4844.765	11.76061	-82.86708	0.2743654
42.675	4840.257	11.77479	-82.82544	0.3441456
42.72898	4835.725	11.80661	-82.78308	0.4146121
42.78297	4831.167	11.86243	-82.74007	0.4835117
42.83696	4826.592	11.94822	-82.69649	0.5492498
42.89095	4822.008	12.06685	-82.65238	0.6105953
42.94494	4817.424	12.21201	-82.6078	0.6665306
42.99893	4812.849	12.37163	-82.56276	0.7162424
43.05292	4808.291	12.53232	-82.51724	0.7591032
43.10691	4803.758	12.68625	-82.47118	0.7946772
43.1609	4799.25	12.82853	-82.42447	0.822745
43.21489	4794.768	12.95689	-82.37697	0.8433217
43.26888	4790.304	13.06753	-82.32852	0.8565893
43.32287	4785.85	13.15878	-82.27895	0.8629199
43.37686	4781.396	13.22463	-82.22813	0.8628152
43.43085	4776.932	13.25626	-82.1759	0.8569158
43.48484	4772.457	13.24753	-82.12214	0.8459754
43.53883	4767.974	13.19328	-82.06674	0.8308566
43.59282	4763.485	13.08971	-82.00964	0.8125737
43.6468	4758.997	12.92721	-81.95081	0.7922828
43.70079	4754.513	12.69967	-81.89025	0.7712213
43.75478	4750.036	12.40357	-81.82801	0.750689
43.80877	4745.571	12.04665	-81.76418	0.7319337
43.86276	4741.123	11.64538	-81.69891	0.716087
43.91675	4736.69	11.22265	-81.63235	0.7040268
43.97074	4732.272	10.79922	-81.56466	0.696309
44.02473	4727.867	10.39261	-81.496	0.6930665
44.07872	4723.476	10.01476	-81.42652	0.6940258
44.13271	4719.094	9.66728	-81.35635	0.6985392
44.1867	4714.717	9.341073	-81.28563	0.7056969
44.24069	4710.347	9.03052	-81.21446	0.714394
44.29468	4705.982	8.733925	-81.14298	0.7235069
44.34867	4701.621	8.456305	-81.07133	0.7319269
44.40266	4697.267	8.208161	-80.99966	0.7386533
44.45665	4692.918	8.004169	-80.92809	0.7428109
44.51064	4688.578	7.860113	-80.85677	0.7436788
44.56462	4684.246	7.781096	-80.78586	0.7406856
44.61861	4679.926	7.762244	-80.7155	0.7334346
44.6726	4675.613	7.796148	-80.64586	0.7217024
44.72659	4671.305	7.878294	-80.5771	0.7054228
44.78058	4666.996	8.003776	-80.50941	0.6846986
44.83457	4662.679	8.17302	-80.44296	0.6597763
44.88856	4658.35	8.383362	-80.37788	0.6310538
44.94255	4654.01	8.632986	-80.31435	0.5990228
44.99654	4649.661	8.915649	-80.25246	0.5643151
45.05053	4645.31	9.222337	-80.19231	0.5276597
45.10452	4640.964	9.543193	-80.13393	0.4899177
45.15851	4636.636	9.86517	-80.07737	0.4520988
45.2125	4632.334	10.17385	-80.02258	0.4153815
45.26649	4628.063	10.45593	-79.9695	0.3811413
45.32048	4623.822	10.70128	-79.91805	0.3509506
45.37447	4619.605	10.90328	-79.86813	0.326473
45.42846	4615.408	11.06081	-79.81964	0.3092103
45.48244	4611.224	11.1799	-79.77244	0.3001155
45.53643	4607.042	11.26931	-79.7264	0.2992115
45.59042	4602.855	11.3364	-79.68142	0.3054273
45.64441	4598.651	11.3888	-79.63738	0.3168446
45.6984	4594.423	11.4251	-79.59418	0.3312082
45.75239	4590.168	11.43956	-79.55172	0.3463066
45.80638	4585.892	11.42356	-79.50992	0.3602287
45.86037	4581.596	11.3701	-79.46873	0.3714027
45.91436	4577.285	11.27763	-79.42811	0.3785933
45.96835	4572.964	11.15143	-79.38801	0.3808904
46.02234	4568.649	11.00436	-79.34842	0.3776383
46.07633	4564.349	10.85362	-79.30934	0.368421
46.13032	4560.066	10.71259	-79.27072	0.353048
46.18431	4555.797	10.59045	-79.23251	0.3315161
46.2383	4551.537	10.49266	-79.19459	0.304021
46.29229	4547.28	10.42091	-79.15687	0.2709127
46.34628	4543.022	10.37409	-79.11919	0.2327516
46.40026	4538.75	10.35112	-79.08141	0.1903171
46.45425	4534.455	10.35629	-79.04336	0.1448096
46.50824	4530.134	10.39348	-79.00487	0.09860892
46.56223	4525.794	10.46304	-78.96578	0.05970106
46.61622	4521.442	10.56186	-78.92599	0.05724367
46.67021	4517.087	10.68604	-78.88537	0.09648984
46.7242	4512.738	10.82679	-78.84388	0.1475063
46.77819	4508.402	10.9732	-78.8015	0.2009336
46.83218	4504.086	11.11191	-78.75822	0.2542122
46.88617	4499.791	11.23178	-78.71411	0.3061792
46.94016	4495.514	11.32777	-78.6692	0.3561002
46.99415	4491.256	11.40138	-78.62357	0.4034833
47.04814	4487.009	11.45675	-78.57729	0.4479928
47.10213	4482.765	11.49921	-78.53041	0.489425
47.15612	4478.521	11.52797	-78.48296	0.5276607
47.21011	4474.275	11.54065	-78.43489	0.5626919
47.2641	4470.024	11.53667	-78.38615	0.5945833
47.31808	4465.765	11.51383	-78.33663	0.6234598
47.37207	4461.5	11.46497	-78.2862	0.6494877
47.42606	4457.229	11.38798	-78.23474	0.6728685
47.48005	4452.959	11.2875	-78.18213	0.6938198
47.53404	4448.692	11.16533	-78.1283	0.7125568
47.58803	4444.434	11.02114	-78.0732	0.7292888
47.64202	4440.187	10.85739	-78.01682	0.7441758
47.69601	4435.956	10.67669	-77.95912	0.7573024
47.75	4431.745	10.48458	-77.90012	0.7686754
47.80399	4427.552	10.28776	-77.83984	0.7781988
47.85798	4423.372	10.09537	-77.77832	0.7856994
47.91197	4419.196	9.912704	-77.71561	0.7909549
47.96596	4415.017	9.740105	-77.65179	0.7937117
48.01995	4410.829	9.576091	-77.58701	0.7937312
48.07394	4406.628	9.419255	-77.5214	0.7907988
48.12793	4402.416	9.266985	-77.45509	0.7847109
48.18192	4398.196	9.118602	-77.38821	0.7753477
48.2359	4393.98	8.974258	-77.32093	0.7625979
48.28989	4389.782	8.833837	-77.25334	0.7464281
48.34388	4385.611	8.698306	-77.1856	0.7268376
48.39787	4381.469	8.570647	-77.11781	0.7038755
48.45186	4377.351	8.456372	-77.05009	0.6776133
48.50585	4373.254	8.35827	-76.98255	0.6481656
48.55984	4369.173	8.284208	-76.91534	0.6156968
48.61383	4365.099	8.241857	-76.8486	0.5804233
48.66782	4361.025	8.240213	-76.78247	0.542625
48.72181	4356.95	8.282857	-76.71709	0.5026919
48.7758	4352.871	8.367596	-76.65263	0.4611817
48.82979	4348.785	8.488785	-76.58927	0.4188311
48.88378	4344.69	8.639286	-76.52723	0.3766357
48.93777	4340.586	8.813827	-76.46668	0.3359372
48.99176	4336.477	9.00739	-76.40786	0.2984875
49.04575	4332.364	9.210162	-76.35098	0.2666048
49.09974	4328.25	9.40886	-76.29625	0.2430544
49.15372	4324.137	9.593423	-76.24387	0.2305201
49.20771	4320.031	9.756643	-76.194	0.2304207
49.2617	4315.93	9.898813	-76.14673	0.241941
49.31569	4311.833	10.02013	-76.10207	0.2623881
49.36968	4307.734	10.12156	-76.06001	0.2884973
49.42367	4303.633	10.208	-76.02046	0.3174014
49.47766	4299.526	10.29032	-75.98328	0.3469123
49.53165	4295.411	10.37737	-75.9483	0.3754748
49.58564	4291.287	10.47412	-75.91535	0.4019935
49.63963	4287.151	10.57888	-75.88421	0.4257754
49.69362	4283.009	10.68363	-75.85464	0.4464233
49.74761	4278.863	10.77962	-75.82642	0.4637882
49.8016	4274.723	10.86634	-75.79931	0.4779627
49.85559	4270.602	10.9457	-75.77308	0.4892077
49.90958	4266.51	11.01845	-75.74753	0.4979737
49.96357	4262.448	11.07894	-75.72247	0.5048063
50.01756	4258.413	11.12523	-75.69772	0.510385
50.07154	4254.399	11.15337	-75.67313	0.5154715
50.12553	4250.397	11.15659	-75.64856	0.5209265
50.17952	4246.398	11.13094	-75.62385	0.5275977
50.23351	4242.396	11.07732	-75.59884	0.5362906
50.2875	4238.389	11.00271	-75.57341	0.5476666
50.34149	4234.373	10.91816	-75.5474	0.5621766
50.39548	4230.351	10.8418	-75.52068	0.5799944
50.44947	4226.321	10.78929	-75.49309	0.601017
50.50346	4222.284	10.77288	-75.46449	0.6248372
50.55745	4218.239	10.79613	-75.43474	0.6508332
50.61144	4214.187	10.85693	-75.40373	0.6782224
50.66543	4210.129	10.94957	-75.37137	0.7061321
50.71942	4206.071	11.06131	-75.33759	0.7336701
50.77341	4202.015	11.17626	-75.30235	0.7599725
50.8274	4197.96	11.28027	-75.26566	0.7842731
50.88139	4193.906	11.36266	-75.22752	0.805928
50.93538	4189.85	11.41861	-75.18793	0.8244451
50.98936	4185.788	11.44854	-75.1469	0.8394886
51.04335	4181.715	11.45376	-75.10445	0.8508667
51.09734	4177.625	11.43622	-75.06063	0.8585063
51.15133	4173.516	11.39544	-75.0155	0.8624439
51.20532	4169.388	11.33453	-74.96911	0.8628191
51.25932	4165.242	11.25793	-74.92152	0.8598648
51.3133	4161.079	11.16402	-74.87279	0.8538907
51.36729	4156.907	11.04581	-74.82294	0.8453048
51.42128	4152.735	10.89651	-74.77199	0.8345845
51.47527	4148.574	10.71372	-74.71991	0.8222495
51.52926	4144.428	10.49802	-74.66668	0.8088439
51.58325	4140.303	10.25323	-74.61224	0.7948815
51.63724	4136.199	9.983327	-74.5565	0.7808466
51.69123	4132.108	9.691845	-74.49938	0.7671409
51.74522	4128.028	9.380403	-74.44082	0.7540995
51.79921	4123.96	9.04806	-74.38074	0.7419635
51.8532	4119.907	8.703313	-74.31908	0.7308566
51.90719	4115.872	8.354187	-74.25577	0.72078
51.96118	4111.854	8.010606	-74.1908	0.7116688
52.01517	4107.85	7.686045	-74.12417	0.7033268
52.06916	4103.858	7.392128	-74.05589	0.6954845
52.12315	4099.87	7.137379	-73.98602	0.6877792
52.17714	4095.883	6.929333	-73.91463	0.6797925
52.23112	4091.893	6.768605	-73.84186	0.6710702
52.28511	4087.908	6.647065	-73.76782	0.6611309
52.3391	4083.929	6.557432	-73.69269	0.649538
52.39309	4079.962	6.498413	-73.61663	0.6358665
52.44708	4076.009	6.467968	-73.53981	0.6197551
52.50107	4072.069	6.463867	-73.46239	0.6009197
52.55506	4068.139	6.486027	-73.38451	0.5791434
52.60905	4064.216	6.53704	-73.30633	0.5542964
52.66304	4060.297	6.619415	-73.22802	0.5263427
52.71703	4056.382	6.735406	-73.14978	0.4953181
52.77102	4052.468	6.890536	-73.07184	0.461391
52.82501	4048.551	7.084084	-72.99443	0.4247856
52.879	4044.629	7.311839	-72.9178	0.3858186
52.93299	4040.704	7.570657	-72.84218	0.3448534
52.98698	4036.777	7.854789	-72.76778	0.3023178
53.04097	4032.849	8.15344	-72.69481	0.258682
53.09496	4028.922	8.451532	-72.62343	0.2144782
53.14894	4025.001	8.731284	-72.55379	0.1703365
53.20293	4021.086	8.979975	-72.48599	0.1270608
53.25692	4017.169	9.191986	-72.42014	0.08599582
53.31091	4013.25	9.364429	-72.35627	0.05088285
53.3649	4009.33	9.493687	-72.29442	0.03724995
53.41889	4005.412	9.580127	-72.23457	0.05756987
53.47288	4001.5	9.628376	-72.17668	0.08824398
53.52687	3997.6	9.643105	-72.12064	0.11899
53.58086	3993.722	9.633027	-72.06636	0.1475178
53.63485	3989.866	9.612035	-72.01366	0.1730874
53.68884	3986.032	9.594826	-71.96242	0.1954383
53.74283	3982.216	9.589208	-71.91244	0.2145722
53.79682	3978.417	9.601873	-71.86357	0.2307048
53.85081	3974.633	9.631301	-71.81564	0.2442886
53.9048	3970.859	9.667129	-71.7685	0.2559832
53.95879	3967.092	9.699861	-71.72197	0.2666459
54.01278	3963.334	9.718895	-71.67589	0.2772726
54.06676	3959.581	9.71281	-71.63009	0.2889164
54.12075	3955.83	9.678103	-71.58443	0.3025681
54.17474	3952.075	9.619204	-71.53876	0.3190447
54.22873	3948.313	9.539179	-71.49295	0.3388552
54.28272	3944.535	9.441578	-71.4469	0.3621651
54.33671	3940.734	9.335508	-71.40054	0.388766
54.3907	3936.905	9.231366	-71.3538	0.418169
54.44469	3933.052	9.13865	-71.30664	0.4496877
54.49868	3929.178	9.066204	-71.25905	0.4825526
54.55267	3925.288	9.019017	-71.21101	0.5159678
54.60666	3921.385	8.997282	-71.16251	0.549184
54.66065	3917.475	8.997466	-71.11355	0.5815055
54.71464	3913.565	9.012362	-71.06413	0.6123152
54.76863	3909.658	9.03245	-71.01429	0.6410965
54.82262	3905.758	9.049329	-70.96403	0.6674189
54.87661	3901.864	9.059343	-70.91339	0.690955
54.9306	3897.974	9.061817	-70.86239	0.7114896
54.98458	3894.087	9.051622	-70.81106	0.728916
55.03857	3890.202	9.021653	-70.75939	0.7431867
55.09256	3886.32	8.965065	-70.7074	0.7543751
55.14655	3882.441	8.873981	-70.65504	0.7626127
55.20054	3878.562	8.748036	-70.60229	0.7680893
55.25453	3874.681	8.593183	-70.5491	0.7710662
55.30852	3870.796	8.414118	-70.49536	0.7718189
55.36251	3866.906	8.219454	-70.441	0.7706456
55.4165	3863.01	8.018053	-70.38593	0.7678426
55.47049	3859.113	7.815839	-70.33002	0.7636834
55.52448	3855.218	7.613385	-70.2732	0.7584071
55.57847	3851.333	7.407081	-70.21535	0.752179
55.63246	3847.465	7.190563	-70.1564	0.7451053
55.68645	3843.624	6.962428	-70.09628	0.7371886
55.74044	3839.817	6.732028	-70.03493	0.7283772
55.79443	3836.044	6.513752	-69.97234	0.7185135
55.84842	3832.301	6.319345	-69.90849	0.7073863
55.9024	3828.58	6.157184	-69.84348	0.69472
55.95639	3824.869	6.026301	-69.77735	0.6802101
56.01038	3821.159	5.920659	-69.71021	0.6635988
56.06437	3817.444	5.833559	-69.6422	0.64467
56.11836	3813.722	5.757719	-69.57348	0.6232578
56.17235	3809.991	5.691226	-69.5042	0.5992603
56.22634	3806.251	5.63738	-69.43452	0.5726287
56.28033	3802.503	5.599909	-69.36461	0.5433829
56.33432	3798.749	5.584211	-69.29465	0.5116103
56.38831	3794.991	5.596286	-69.22476	0.477518
56.4423	3791.236	5.642169	-69.15511	0.44147
56.49629	3787.491	5.727455	-69.0858	0.4040369
56.55028	3783.766	5.854521	-69.01698	0.3660585
56.60427	3780.067	6.024181	-68.94877	0.328758
56.65826	3776.394	6.232402	-68.88128	0.2938566
56.71225	3772.743	6.471394	-68.81461	0.2637238
56.76624	3769.108	6.731649	-68.74883	0.2413417
56.82022	3765.482	7.002975	-68.68395	0.2297878
56.87421	3761.858	7.27844	-68.62	0.2310052
56.9282	3758.227	7.552629	-68.55693	0.2446291
56.98219	3754.583	7.814976	-68.49472	0.2681946
57.03618	3750.919	8.05396	-68.4333	0.2984596
57.09017	3747.232	8.259458	-68.37257	0.3324993
57.14416	3743.523	8.421366	-68.31242	0.3679987
57.19815	3739.799	8.534107	-68.25274	0.4032159
57.25214	3736.07	8.592427	-68.19337	0.4368114
57.30613	3732.349	8.597905	-68.1342	0.4677449
57.36012	3728.645	8.559063	-68.07506	0.495173
57.41411	3724.967	8.491152	-68.01579	0.5184382
57.4681	3721.32	8.413771	-67.95625	0.5370179
57.52209	3717.699	8.34592	-67.89626	0.5505878
57.57608	3714.099	8.298141	-67.83567	0.5589579
57.63007	3710.515	8.273252	-67.77433	0.5621108
57.68406	3706.943	8.266642	-67.71205	0.5602109
57.73804	3703.377	8.267759	-67.64868	0.5535715
57.79203	3699.815	8.265512	-67.58405	0.5426835
57.84602	3696.253	8.25208	-67.51802	0.5282415
57.90001	3692.687	8.220849	-67.45048	0.5110919
57.954	3689.111	8.172257	-67.38132	0.4922503
58.00799	3685.521	8.111213	-67.31053	0.4728501
58.06198	3681.916	8.046421	-67.23811	0.4540959
58.11597	3678.295	7.987137	-67.16413	0.4371987
58.16996	3674.658	7.943349	-67.08873	0.4232705
58.22395	3671.007	7.925603	-67.01205	0.4132153
58.27794	3667.345	7.944305	-66.93427	0.4075889
58.33193	3663.675	8.003508	-66.85555	0.4065275
58.38592	3659.996	8.102668	-66.77599	0.4097141
58.43991	3656.304	8.240443	-66.69569	0.416414
58.4939	3652.598	8.411036	-66.61469	0.4256105
58.54789	3648.881	8.599864	-66.53297	0.436114
58.60188	3645.153	8.784961	-66.45049	0.4466906
58.65586	3641.413	8.943616	-66.36716	0.4561433
58.70985	3637.665	9.06047	-66.28284	0.4633986
58.76384	3633.914	9.128907	-66.19733	0.4675513
58.81783	3630.168	9.14876	-66.11037	0.4678843
58.87182	3626.435	9.125605	-66.02164	0.4638626
58.92581	3622.726	9.068367	-65.93085	0.4551609
58.9798	3619.052	8.986712	-65.83768	0.4416514
59.03379	3615.413	8.890347	-65.74179	0.4233954
59.08778	3611.806	8.786665	-65.64286	0.4006415
59.14177	3608.223	8.680174	-65.54057	0.3738254
59.19576	3604.656	8.574542	-65.43462	0.3435769
59.24975	3601.1	8.472587	-65.32468	0.3107057
59.30374	3597.555	8.375385	-65.21049	0.2762376
59.35773	3594.024	8.280536	-65.0918	0.2414544
59.41172	3590.51	8.179334	-64.96839	0.208013
59.46571	3587.018	8.060834	-64.84007	0.1781656
59.5197	3583.553	7.915904	-64.70669	0.1549033
59.57368	3580.116	7.74228	-64.5681	0.1415903
59.62767	3576.709	7.546637	-64.42419	0.1403194
59.68166	3573.326	7.338563	-64.27486	0.1499944
59.73565	3569.965	7.126949	-64.12006	0.1669666
59.78964	3566.619	6.922343	-63.95975	0.1873508
59.84363	3563.28	6.732805	-63.79395	0.2082198
59.89762	3559.937	6.56603	-63.62271	0.2276255
59.95161	3556.584	6.42526	-63.44613	0.2442703
60.0056	3553.218	6.312583	-63.26437	0.2572811
60.05959	3549.833	6.22853	-63.07767	0.266044
60.11358	3546.429	6.167373	-62.88633	0.2701651
60.16757	3543.007	6.122646	-62.69072	0.2694065
60.22156	3539.571	6.090149	-62.49127	0.2636836
60.27555	3536.126	6.067015	-62.28846	0.2530303
60.32954	3532.676	6.051148	-62.08276	0.2375878
60.38353	3529.225	6.04651	-61.87469	0.2175873
60.43752	3525.779	6.063397	-61.66471	0.1933617
60.4915	3522.348	6.115561	-61.45325	0.1653592
60.54549	3518.939	6.210716	-61.24069	0.1342262
60.59948	3515.552	6.349011	-61.02735	0.1011106
60.65347	3512.182	6.528933	-60.81348	0.06879335
60.70746	3508.818	6.745256	-60.59923	0.04724201
60.76145	3505.451	6.989712	-60.38467	0.05732619
60.81544	3502.076	7.253236	-60.1698	0.09118047
60.86943	3498.692	7.524847	-59.95452	0.1325281
60.92342	3495.305	7.79437	-59.73867	0.1763522
60.97741	3491.93	8.054809	-59.52201	0.2208875
61.0314	3488.581	8.297979	-59.30426	0.2651553
61.08539	3485.269	8.515551	-59.08504	0.308449
61.13938	3482.003	8.700974	-58.86395	0.3501731
61.19337	3478.785	8.852064	-58.64051	0.3897849
61.24736	3475.61	8.971443	-58.41424	0.4267781
61.30135	3472.477	9.062531	-58.18459	0.4606589
61.35534	3469.382	9.128932	-57.951	0.4909579
61.40932	3466.32	9.170299	-57.71289	0.5172465
61.46331	3463.282	9.181576	-57.46965	0.5391606
61.5173	3460.257	9.155293	-57.22067	0.5564183
61.57129	3457.24	9.087659	-56.96527	0.5688431
61.62528	3454.226	8.979516	-56.70276	0.5763677
61.67927	3451.218	8.833716	-56.43245	0.5790691
61.73326	3448.221	8.655481	-56.15363	0.577153
61.78725	3445.242	8.452218	-55.86563	0.5709688
61.84124	3442.281	8.234051	-55.56779	0.5609877
61.89523	3439.341	8.013592	-55.2595	0.5478439
61.94922	3436.42	7.804816	-54.94017	0.532293
62.00321	3433.517	7.61963	-54.60927	0.5152456
62.0572	3430.626	7.466378	-54.26631	0.4977197
62.11119	3427.743	7.352212	-53.91088	0.4808461
62.16518	3424.867	7.279011	-53.5426	0.4657577
62.21917	3421.997	7.247186	-53.16118	0.4535734
62.27316	3419.129	7.256695	-52.76633	0.4452004
62.32714	3416.258	7.305521	-52.35786	0.441247
62.38113	3413.376	7.389884	-51.93555	0.4418606
62.43512	3410.481	7.502793	-51.49924	0.4467368
62.48911	3407.577	7.634674	-51.04876	0.4550789
62.5431	3404.665	7.774542	-50.58393	0.4658087
62.59709	3401.75	7.913953	-50.10455	0.4776182
62.65108	3398.836	8.046451	-49.61042	0.4892152
62.70507	3395.927	8.165936	-49.10127	0.4993298
62.75906	3393.032	8.267776	-48.57685	0.506891
62.81305	3390.16	8.34872	-48.03681	0.5109527
62.86704	3387.316	8.409355	-47.48078	0.5108405
62.92103	3384.499	8.456689	-46.90831	0.5060335
62.97502	3381.709	8.499165	-46.31889	0.4962759
63.02901	3378.95	8.54099	-45.71194	0.4814528
63.083	3376.222	8.583083	-45.0868	0.4617325
63.13699	3373.527	8.625259	-44.44273	0.4374421
63.19098	3370.861	8.664205	-43.77892	0.40927
63.24496	3368.22	8.694099	-43.09449	0.378162
63.29895	3365.604	8.711083	-42.38857	0.3455364
63.35294	3363.016	8.708948	-41.66021	0.3133228
63.40693	3360.459	8.679068	-40.90849	0.2842129
63.46092	3357.933	8.613244	-40.13242	0.2615998
63.51491	3355.444	8.506475	-39.33107	0.2492176
63.5689	3352.999	8.35765	-38.50339	0.2497563
63.62289	3350.606	8.170601	-37.64839	0.2634699
63.67688	3348.271	7.952087	-36.76498	0.2880564
63.73087	3345.998	7.709009	-35.85213	0.3199606
63.78486	3343.789	7.449679	-34.90876	0.3558068
63.83885	3341.649	7.185026	-33.93385	0.3928317
63.89284	3339.579	6.929134	-32.92635	0.4289821
63.94683	3337.581	6.695534	-31.88522	0.4626579
64.00082	3335.651	6.49445	-30.80944	0.4927073
64.05481	3333.787	6.33476	-29.69802	0.5181991
64.1088	3331.988	6.218959	-28.55	0.538416
64.16279	3330.247	6.142075	-27.36447	0.5527741
64.21677	3328.562	6.095977	-26.14057	0.5608479
64.27077	3326.932	6.070506	-24.87749	0.5623158
64.32475	3325.357	6.058902	-23.57447	0.5570304
64.37875	3323.844	6.057505	-22.23074	0.5449736
64.43273	3322.399	6.065801	-20.8456	0.5263858
64.48672	3321.028	6.084434	-19.41837	0.5017408
64.54071	3319.736	6.112277	-17.94837	0.4719433
64.5947	3318.525	6.147025	-16.43496	0.4383593
64.64869	3317.387	6.18917	-14.87751	0.4031455
64.70268	3316.316	6.243841	-13.27541	0.3694342
64.75667	3315.306	6.320411	-11.62801	0.3418007
64.81066	3314.355	6.427357	-9.93467	0.3260148
64.86465	3313.461	6.570866	-8.194666	0.3278984
64.91864	3312.623	6.75194	-6.407265	0.350637
64.97263	3311.846	6.967527	-4.571589	0.3934071
65.02662	3311.135	7.20998	-2.686768	0.4526845
65.0806	3310.502	7.469787	-0.7517223	0.5243709
65.1346	3309.957	7.732801	1.234626	0.6050926
65.18858	3309.508	7.981124	3.273579	0.6922195
65.24258	3309.16	8.204507	5.366423	0.7838753
65.29656	3308.921	8.398664	7.51466	0.8785057
65.35056	3308.795	8.559481	9.719765	0.974915
65.40454	3308.786	8.683864	11.9834	1.071997
65.45853	3308.891	8.768993	14.30727	1.168767
65.51252	3309.108	8.819029	16.69322	1.264302
65.56651	3309.44	8.846262	19.14312	1.357752
65.6205	3309.894	8.863259	21.65903	1.448338
65.67449	3310.471	8.874796	24.24298	1.535369
65.72848	3311.181	8.880431	26.89719	1.618246
65.78247	3312.03	8.88181	29.6239	1.696405
65.83646	3313.026	8.883525	32.42542	1.76951
65.89045	3314.173	8.889894	35.30411	1.837196
65.94444	3315.473	8.89864	38.26241	1.899372
65.99843	3316.928	8.904489	41.30278	1.955914
66.05241	3318.544	8.901306	44.42769	2.006983
66.10641	3320.327	8.886471	47.63965	2.052703
66.16039	3322.283	8.859831	50.94113	2.093456
66.21439	3324.415	8.823874	54.33457	2.129646
66.26837	3326.723	8.781538	57.8225	2.161796
66.32236	3329.201	8.734243	61.40733	2.190518
66.37635	3331.844	8.687276	65.09155	2.216439
66.43034	3334.648	8.651196	68.87756	2.240207
66.48433	3337.62	8.634544	72.76776	2.262442
66.53832	3340.766	8.639298	76.76454	2.283693
66.59231	3344.095	8.663615	80.87021	2.304435
66.6463	3347.614	8.704865	85.08706	2.325036
66.70029	3351.325	8.76722	89.41736	2.345742
66.75428	3355.232	8.858422	93.86333	2.366717
66.80827	3359.342	8.983468	98.42715	2.387985
66.86226	3363.66	9.141897	103.111	2.40947
66.91624	3368.195	9.330358	107.917	2.431005
66.97024	3372.949	9.546297	112.8473	2.45234
67.02422	3377.93	9.787198	117.9041	2.473145
67.07822	3383.146	10.049	123.0896	2.493043
67.1322	3388.606	10.3228	128.4061	2.511632
67.1862	3394.312	10.60036	133.8557	2.528477
67.24018	3400.269	10.87374	139.441	2.543187
67.29417	3406.486	11.13496	145.1643	2.555361
67.34816	3412.975	11.37182	151.0281	2.564649
67.40215	3419.747	11.5702	157.0349	2.570752
67.45614	3426.814	11.72523	163.1873	2.57344
67.51013	3434.188	11.84239	169.488	2.572495
67.56412	3441.886	11.93404	175.9394	2.568044
67.61811	3449.917	12.01264	182.5443	2.559927
67.6721	3458.297	12.08048	189.305	2.54858
67.72609	3467.037	12.13578	196.2243	2.534074
67.78008	3476.148	12.1767	203.304	2.517074
67.83407	3485.641	12.20226	210.5465	2.497921
67.88805	3495.524	12.20774	217.9533	2.477451
67.94205	3505.804	12.188	225.5259	2.456167
67.99603	3516.49	12.14057	233.2649	2.435001
68.05003	3527.592	12.06413	241.1711	2.414512
68.10401	3539.121	11.95528	249.2438	2.395588
68.158	3551.084	11.81382	257.4825	2.378766
68.21199	3563.493	11.64577	265.8855	2.364768
68.26598	3576.359	11.45478	274.4507	2.354049
68.31997	3589.691	11.24814	283.1752	2.346859
68.37396	3603.496	11.03763	292.0554	2.343562
68.42795	3617.78	10.84072	301.087	2.344154
68.48194	3632.554	10.67503	310.2655	2.348519
68.53593	3647.829	10.54828	319.5852	2.356456
68.58992	3663.612	10.46306	329.0402	2.367671
68.64391	3679.907	10.41789	338.6238	2.381783
68.6979	3696.718	10.409	348.3291	2.398464
68.75188	3714.049	10.43103	358.1482	2.417352
68.80588	3731.913	10.47939	368.073	2.438218
68.85986	3750.32	10.55348	378.0946	2.460854
68.91386	3769.279	10.64989	388.204	2.485114
68.96784	3788.801	10.76246	398.3911	2.510947
69.02184	3808.901	10.88664	408.6458	2.538308
69.07582	3829.593	11.01989	418.9571	2.567241
69.12981	3850.896	11.16062	429.3138	2.597793
69.1838	3872.824	11.31043	439.7042	2.629947
69.23779	3895.399	11.47621	450.1161	2.663659
69.29178	3918.631	11.66826	460.537	2.698744
69.34577	3942.532	11.89689	470.9539	2.734945
69.39976	3967.104	12.16622	481.3534	2.771855
69.45375	3992.356	12.4761	491.7219	2.809039
69.50774	4018.293	12.82152	502.0454	2.845948
69.56173	4044.934	13.19482	512.3098	2.882015
69.61572	4072.295	13.58716	522.5005	2.916582
69.66971	4100.404	13.98817	532.6025	2.949035
69.72369	4129.283	14.39037	542.6011	2.978715
69.77769	4158.954	14.78827	552.4806	3.005031
69.83167	4189.436	15.1758	562.2255	3.027349
69.88567	4220.75	15.54506	571.8198	3.045103
69.93965	4252.905	15.89306	581.2473	3.057753
69.99364	4285.914	16.22006	590.4911	3.064759
70.04764	4319.784	16.52657	599.5345	3.065858
70.10162	4354.515	16.81811	608.36	3.060415
70.15562	4390.098	17.09969	616.95	3.048157
70.2096	4426.519	17.37725	625.2861	3.028702
70.2636	4463.75	17.65244	633.3506	3.00187
70.31758	4501.751	17.92273	641.1243	2.967273
70.37157	4540.478	18.18967	648.5892	2.924695
70.42556	4579.881	18.45441	655.7263	2.873765
70.47955	4619.909	18.71253	662.5173	2.814423
70.53354	4660.505	18.95724	668.9437	2.746145
70.58753	4701.61	19.18455	674.988	2.668963
70.64152	4743.165	19.39101	680.6324	2.582409
70.69551	4785.112	19.57151	685.8604	2.486716
70.7495	4827.4	19.72007	690.6556	2.381475
70.80349	4869.987	19.83664	695.0034	2.267028
70.85748	4912.839	19.92109	698.8889	2.143032
70.91147	4955.934	19.97501	702.2999	2.010189
70.96545	4999.265	20.00643	705.2236	1.868339
71.01945	5042.824	20.03082	707.65	1.718506
71.07343	5086.604	20.06032	709.5691	1.560922
71.12743	5130.593	20.10024	710.9737	1.397249
71.18141	5174.777	20.15413	711.8566	1.228347
71.2354	5219.142	20.22427	712.2136	1.057019
71.28939	5263.667	20.30967	712.0405	0.8857608
71.34338	5308.323	20.40161	711.3362	0.7211081
71.39737	5353.075	20.4974	710.0995	0.5728558
71.45136	5397.887	20.59215	708.3328	0.4640588
71.50535	5442.722	20.68105	706.0377	0.4283817
71.55934	5487.542	20.76519	703.2198	0.4852909
71.61333	5532.312	20.84893	699.8842	0.6087275
71.66732	5576.999	20.93731	696.0389	0.7670174
71.72131	5621.572	21.029	691.6924	0.9413583
71.7753	5666	21.12041	686.855	1.122466
71.82928	5710.241	21.20323	681.538	1.306283
71.88328	5754.246	21.26207	675.7548	1.490209
71.93726	5797.957	21.28299	669.5184	1.672725
71.99126	5841.313	21.25875	662.8445	1.852799
72.04524	5884.25	21.18992	655.7483	2.029948
72.09924	5926.691	21.08553	648.2469	2.203699
72.15322	5968.542	20.95393	640.3569	2.373904
72.20721	6009.707	20.80201	632.0967	2.540407
72.2612	6050.081	20.63586	623.4842	2.703042
72.31519	6089.566	20.46517	614.5382	2.861831
72.36918	6128.083	20.2951	605.2773	3.016561
72.42317	6165.565	20.12227	595.7208	3.167134
72.47716	6201.963	19.93771	585.8875	3.313339
72.53115	6237.242	19.7265	575.7968	3.454966
72.58514	6271.382	19.47252	565.4673	3.591614
72.63913	6304.374	19.16168	554.9185	3.723097
72.69312	6336.215	18.78985	544.169	3.848951
72.74711	6366.912	18.35947	533.2377	3.968828
72.80109	6396.473	17.87819	522.1436	4.082393
72.85509	6424.915	17.35488	510.9053	4.18923
72.90907	6452.25	16.80424	499.5417	4.289029
72.96307	6478.499	16.24644	488.0714	4.381429
73.01705	6503.669	15.70465	476.5131	4.466012
73.07104	6527.778	15.19097	464.8855	4.542459
73.12503	6550.842	14.71643	453.2071	4.610379
73.17902	6572.883	14.29055	441.4965	4.669379
73.23301	6593.936	13.92145	429.7722	4.71909
73.287	6614.033	13.60424	418.0527	4.759182
73.34099	6633.207	13.3247	406.3561	4.78931
73.39498	6651.491	13.06151	394.7003	4.809215
73.44897	6668.918	12.79026	383.1031	4.818652
73.50296	6685.519	12.49121	371.5815	4.817473
73.55695	6701.324	12.14992	360.1525	4.80551
73.61094	6716.379	11.7637	348.8323	4.782699
73.66492	6730.733	11.34	337.6367	4.749017
73.71892	6744.438	10.90241	326.581	4.704534
73.7729	6757.544	10.48349	315.6796	4.649513
73.8269	6770.091	10.11139	304.9465	4.584292
73.88088	6782.108	9.808364	294.3947	4.509254
73.93488	6793.624	9.582939	284.0368	4.424944
73.98886	6804.665	9.427411	273.8841	4.331896
74.04285	6815.26	9.331725	263.9473	4.230781
74.09684	6825.439	9.283195	254.236	4.122269
74.15083	6835.228	9.269932	244.7589	4.007121
74.20482	6844.646	9.283514	235.5235	3.886039
74.25881	6853.702	9.315	226.5364	3.759784
74.3128	6862.408	9.358643	217.8027	3.629049
74.36679	6870.777	9.406788	209.3266	3.494558
74.42078	6878.833	9.462316	201.1111	3.356982
74.47477	6886.594	9.533922	193.1578	3.217047
74.52876	6894.08	9.626859	185.467	3.075398
74.58275	6901.305	9.746679	178.0381	2.93279
74.63673	6908.282	9.898108	170.869	2.789982
74.69073	6915.019	10.08593	163.9567	2.647751
74.74471	6921.526	10.31423	157.2971	2.506976
74.79871	6927.813	10.57864	150.8851	2.368548
74.85269	6933.894	10.86664	144.7149	2.233448
74.90668	6939.767	11.16295	138.7798	2.102656
74.96067	6945.431	11.45798	133.0727	1.977164
75.01466	6950.89	11.74852	127.5858	1.857982
75.06865	6956.146	12.03343	122.311	1.746121
75.12264	6961.2	12.31011	117.2401	1.642539
75.17663	6966.06	12.57255	112.3646	1.548125
75.23062	6970.732	12.81715	107.6761	1.463655
75.28461	6975.229	13.03952	103.166	1.389696
75.3386	6979.56	13.24177	98.82597	1.326533
75.39259	6983.742	13.43326	94.64777	1.274103
75.44658	6987.783	13.61912	90.62334	1.231949
75.50056	6991.69	13.80383	86.74477	1.199195
75.55456	6995.462	13.98443	83.00439	1.174595
75.60854	6999.1	14.15195	79.39484	1.15661
75.66254	7002.602	14.29595	75.90906	1.143566
75.71652	7005.964	14.40856	72.54028	1.133751
75.77052	7009.181	14.48077	69.2821	1.125539
75.8245	7012.252	14.51339	66.12843	1.117484
75.87849	7015.183	14.51519	63.07358	1.108325
75.93248	7017.98	14.49408	60.11218	1.096977
75.98647	7020.647	14.45445	57.23921	1.082529
76.04046	7023.184	14.38981	54.45004	1.064252
76.09445	7025.593	14.28908	51.74034	1.041622
76.14844	7027.882	14.1484	49.10619	1.014335
76.20243	7030.064	13.96951	46.54393	0.9823865
76.25642	7032.147	13.76328	44.05022	0.946105
76.31041	7034.133	13.54201	41.622	0.9062833
76.3644	7036.023	13.31786	39.25647	0.8642429
76.41839	7037.817	13.10789	36.95107	0.8219857
76.47237	7039.51	12.92443	34.70345	0.7822375
76.52637	7041.094	12.77253	32.51145	0.7484598
76.58035	7042.564	12.65169	30.3731	0.7245848
76.63435	7043.916	12.55475	28.28657	0.714507
76.68833	7045.146	12.47986	26.25019	0.7212105
76.74232	7046.257	12.43101	24.26239	0.7459927
76.79631	7047.255	12.4125	22.3217	0.7881376
76.8503	7048.146	12.42422	20.42673	0.8452802
76.90429	7048.931	12.45918	18.57615	0.9141497
76.95828	7049.605	12.5156	16.76874	0.991239
77.01227	7050.169	12.59724	15.00331	1.073262
77.06626	7050.622	12.71548	13.27879	1.157306
77.12025	7050.966	12.87692	11.59422	1.240878
77.17424	7051.197	13.07873	9.948708	1.321861
77.22823	7051.311	13.30727	8.341462	1.398495
77.28222	7051.298	13.5458	6.771808	1.469331
77.3362	7051.153	13.77935	5.239176	1.533214
77.3902	7050.88	13.99263	3.743134	1.589231
77.44418	7050.491	14.17003	2.283391	1.636703
77.49818	7049.996	14.3011	0.8597944	1.675156
77.55216	7049.402	14.38191	-0.5277097	1.704338
77.60616	7048.719	14.42034	-1.879056	1.724187
77.66014	7047.959	14.43099	-3.194077	1.734825
77.71413	7047.137	14.42437	-4.472499	1.736537
77.76812	7046.261	14.40151	-5.713979	1.729781
77.82211	7045.347	14.35829	-6.918108	1.715179
77.8761	7044.408	14.29025	-8.084454	1.693548
77.93009	7043.459	14.19623	-9.212549	1.665914
77.98408	7042.511	14.07762	-10.30194	1.63353
78.03807	7041.563	13.93273	-11.35215	1.597847
78.09206	7040.595	13.75529	-12.36276	1.560502
78.14605	7039.595	13.53432	-13.33334	1.523246
78.20004	7038.563	13.25952	-14.2636	1.487921
78.25403	7037.5	12.92466	-15.15328	1.456338
78.30801	7036.408	12.52938	-16.00222	1.430158
78.36201	7035.285	12.08268	-16.81036	1.410713
78.41599	7034.129	11.59818	-17.57769	1.3989
78.46999	7032.941	11.0886	-18.3043	1.39507
78.52397	7031.719	10.56216	-18.99034	1.399018
78.57796	7030.459	10.02343	-19.63602	1.410043
78.63195	7029.159	9.480502	-20.24167	1.427068
78.68594	7027.826	8.942034	-20.80773	1.448776
78.73993	7026.464	8.419675	-21.33478	1.473697
78.79392	7025.07	7.918396	-21.82348	1.500323
78.84791	7023.635	7.442356	-22.27463	1.527163
78.9019	7022.151	6.999023	-22.68913	1.552843
78.95589	7020.615	6.59546	-23.068	1.576137
79.00988	7019.023	6.242634	-23.41236	1.596005
79.06387	7017.376	5.954304	-23.72342	1.61157
79.11786	7015.683	5.747873	-24.00245	1.622173
79.17184	7013.953	5.634223	-24.25076	1.627355
79.22584	7012.192	5.615	-24.46968	1.626869
79.27982	7010.401	5.68572	-24.66057	1.620664
79.33382	7008.581	5.83911	-24.82467	1.608859
79.3878	7006.741	6.063972	-24.96317	1.591734
79.4418	7004.893	6.342832	-25.07714	1.569722
79.49578	7003.047	6.656141	-25.16751	1.543423
79.54977	7001.216	6.98745	-25.23511	1.513595
79.60376	6999.407	7.326416	-25.28067	1.481147
79.65775	6997.628	7.672666	-25.30481	1.447118
79.71174	6995.882	8.035125	-25.30805	1.412657
79.76573	6994.167	8.426869	-25.29078	1.378986
79.81972	6992.479	8.854915	-25.25337	1.347344
79.87371	6990.819	9.317832	-25.19612	1.318911
79.9277	6989.187	9.813118	-25.11933	1.294743
79.98169	6987.591	10.33768	-25.02328	1.275692
80.03568	6986.037	10.88675	-24.90825	1.262311
80.08967	6984.521	11.44749	-24.77456	1.254849
80.14365	6983.043	12.00099	-24.62256	1.253181
80.19765	6981.61	12.53061	-24.4527	1.256867
80.25163	6980.226	13.02006	-24.26549	1.265163
80.30563	6978.899	13.46209	-24.06156	1.277122
80.35961	6977.633	13.85516	-23.84161	1.291655
80.4136	6976.422	14.20507	-23.60649	1.30761
80.46759	6975.254	14.51301	-23.3571	1.323826
80.52158	6974.119	14.77499	-23.09445	1.339168
80.57557	6973.004	14.99254	-22.81964	1.352587
80.62956	6971.903	15.16966	-22.53388	1.363126
80.68355	6970.812	15.31681	-22.23846	1.369957
80.73754	6969.725	15.44003	-21.93485	1.372369
80.79153	6968.638	15.54409	-21.62456	1.369811
80.84552	6967.551	15.62958	-21.30924	1.361905
80.89951	6966.467	15.69454	-20.99059	1.348488
80.9535	6965.394	15.73651	-20.67045	1.329609
81.00748	6964.333	15.75273	-20.35073	1.305574
81.06148	6963.284	15.74188	-20.03348	1.276926
81.11546	6962.256	15.70351	-19.72078	1.244462
81.16946	6961.248	15.63324	-19.41483	1.209184
81.22344	6960.254	15.5201	-19.11785	1.17229
81.27744	6959.265	15.34888	-18.83206	1.135111
81.33142	6958.275	15.11175	-18.55957	1.099115
81.38541	6957.279	14.81276	-18.30244	1.065834
81.4394	6956.269	14.46415	-18.06259	1.036825
81.49339	6955.234	14.08559	-17.84178	1.013552
81.54738	6954.169	13.69436	-17.64159	0.9972739
81.60137	6953.077	13.3027	-17.46343	0.9889266
81.65536	6951.97	12.92434	-17.30849	0.9890307
81.70935	6950.869	12.58119	-17.17779	0.9976371
81.76334	6949.792	12.29127	-17.07214	1.01431
81.81733	6948.767	12.06184	-16.99227	1.038196
81.87132	6947.815	11.88841	-16.93877	1.068079
81.92531	6946.957	11.76118	-16.91219	1.102546
81.97929	6946.208	11.66854	-16.913	1.140038
82.03329	6945.577	11.60325	-16.94163	1.179036
82.08727	6945.054	11.55854	-16.99844	1.21804
82.14127	6944.619	11.52822	-17.08378	1.255729
82.19525	6944.236	11.50897	-17.19793	1.290879
82.24924	6943.881	11.50139	-17.34117	1.322514
82.30323	6943.54	11.50656	-17.51376	1.349768
82.35722	6943.192	11.52758	-17.71601	1.372014
82.41121	6942.815	11.56579	-17.94819	1.388711
82.4652	6942.397	11.61765	-18.21069	1.399606
82.5192	6941.947	11.68229	-18.50386	1.404543
82.57318	6941.478	11.75986	-18.8282	1.403682
82.62717	6941.006	11.85312	-19.18416	1.397229
82.68116	6940.542	11.96414	-19.57232	1.385682
82.73515	6940.087	12.0906	-19.99324	1.369552
82.78914	6939.641	12.22275	-20.44763	1.349638
82.84313	6939.199	12.35196	-20.93611	1.32671
82.89712	6938.747	12.47229	-21.45944	1.301787
82.95111	6938.262	12.58428	-22.01827	1.275774
83.0051	6937.722	12.69214	-22.61339	1.249785
83.05909	6937.113	12.79768	-23.24549	1.224737
83.11308	6936.416	12.89988	-23.91541	1.201734
83.16707	6935.61	12.99721	-24.62391	1.181612
83.22105	6934.685	13.09033	-25.37187	1.165316
83.27505	6933.636	13.17989	-26.16001	1.153464
83.32903	6932.47	13.26547	-26.98911	1.14672
83.38303	6931.206	13.34464	-27.85978	1.145398
83.43701	6929.862	13.41348	-28.77267	1.149836
83.491	6928.458	13.46748	-29.72821	1.160061
83.54499	6927.007	13.49918	-30.72683	1.176126
83.59898	6925.521	13.49918	-31.76867	1.197794
83.65297	6924.001	13.46735	-32.85383	1.224836
83.70696	6922.444	13.40878	-33.98207	1.256806
83.76095	6920.842	13.33206	-35.15307	1.293304
83.81494	6919.185	13.24021	-36.36619	1.333801
83.86893	6917.461	13.1336	-37.62069	1.37785
83.92292	6915.666	13.01046	-38.91555	1.424983
83.97691	6913.794	12.87063	-40.24966	1.474806
84.0309	6911.852	12.71273	-41.62164	1.526946
84.08488	6909.847	12.5281	-43.03005	1.581098
84.13888	6907.789	12.31154	-44.47322	1.636958
84.19286	6905.686	12.05994	-45.94946	1.69424
84.24686	6903.553	11.7723	-47.45689	1.752644
84.30084	6901.391	11.44822	-48.99364	1.811833
84.35484	6899.182	11.09485	-50.55773	1.871438
84.40882	6896.895	10.72358	-52.14721	1.931043
84.46281	6894.501	10.35017	-53.76003	1.990218
84.5168	6891.979	9.994209	-55.39422	2.048469
84.57079	6889.315	9.675491	-57.0477	2.105292
84.62478	6886.506	9.402987	-58.7184	2.160116
84.67877	6883.557	9.18033	-60.40419	2.212386
84.73276	6880.479	9.002254	-62.10294	2.261523
84.78675	6877.292	8.85764	-63.81253	2.306966
84.84074	6874.008	8.732824	-65.53094	2.348135
84.89473	6870.636	8.6172	-67.25612	2.38448
84.94872	6867.183	8.511292	-68.98611	2.415447
85.00271	6863.651	8.417741	-70.71896	2.440561
85.05669	6860.039	8.329836	-72.4528	2.459361
85.11069	6856.33	8.2403	-74.18581	2.471473
85.16467	6852.51	8.150246	-75.91625	2.476596
85.21867	6848.566	8.067069	-77.64242	2.47454
85.27265	6844.482	8.002047	-79.36267	2.465238
85.32664	6840.241	7.971494	-81.07541	2.448772
85.38063	6835.835	7.99072	-82.77911	2.425371
85.43462	6831.263	8.071165	-84.47227	2.395386
85.48861	6826.532	8.217827	-86.15348	2.359268
85.5426	6821.652	8.425429	-87.82143	2.317553
85.59659	6816.64	8.681028	-89.47493	2.270852
85.65058	6811.504	8.967953	-91.11289	2.219865
85.70457	6806.254	9.273665	-92.7343	2.165367
85.75856	6800.895	9.588634	-94.33819	2.108225
85.81255	6795.44	9.903492	-95.92367	2.049357
85.86654	6789.897	10.20842	-97.48986	1.989741
85.92052	6784.277	10.49559	-99.0359	1.930376
85.97452	6778.572	10.76739	-100.561	1.872282
86.0285	6772.769	11.03325	-102.0641	1.816466
86.0825	6766.839	11.30321	-103.5444	1.763899
86.13648	6760.763	11.59112	-105.001	1.715461
86.19048	6754.526	11.91702	-106.433	1.671851
86.24446	6748.135	12.2881	-107.8393	1.633569
86.29845	6741.601	12.69909	-109.2192	1.600861
86.35244	6734.948	13.13844	-110.572	1.573743
86.40643	6728.198	13.59204	-111.8969	1.551995
86.46042	6721.381	14.04892	-113.1935	1.535189
86.51441	6714.513	14.50268	-114.4614	1.522698
86.5684	6707.607	14.94494	-115.7002	1.513759
86.62239	6700.672	15.36417	-116.9096	1.50754
86.67638	6693.715	15.74524	-118.0893	1.503188
86.73037	6686.741	16.067	-119.239	1.499856
86.78436	6679.752	16.31253	-120.3585	1.496733
86.83835	6672.747	16.47211	-121.4476	1.493064
86.89233	6665.723	16.54716	-122.5059	1.488165
86.94633	6658.674	16.54923	-123.5333	1.481395
87.00031	6651.595	16.48949	-124.5295	1.472207
87.05431	6644.481	16.37849	-125.4941	1.460159
87.10829	6637.331	16.22996	-126.4271	1.444925
87.16228	6630.15	16.05721	-127.3282	1.426313
87.21627	6622.957	15.87328	-128.1973	1.404254
87.27026	6615.753	15.68529	-129.0343	1.378819
87.32425	6608.542	15.495	-129.8393	1.350199
87.37824	6601.311	15.29783	-130.6124	1.318678
87.43223	6594.052	15.08936	-131.3536	1.284641
87.48622	6586.764	14.86459	-132.0631	1.24859
87.54021	6579.452	14.61869	-132.7411	1.211083
87.5942	6572.131	14.34732	-133.3881	1.172782
87.64819	6564.814	14.05282	-134.0045	1.134433
87.70218	6557.501	13.74716	-134.5908	1.096755
87.75616	6550.184	13.44975	-135.1477	1.060457
87.81016	6542.851	13.18149	-135.676	1.026218
87.86414	6535.498	12.95963	-136.1765	0.9945735
87.91814	6528.125	12.79498	-136.6501	0.9660038
87.97212	6520.741	12.69203	-137.098	0.9408741
88.02612	6513.358	12.64637	-137.521	0.9194615
88.0801	6505.974	12.64326	-137.9204	0.901904
88.13409	6498.581	12.66982	-138.2972	0.8882094
88.18808	6491.16	12.72124	-138.6523	0.8783066
88.24207	6483.7	12.79442	-138.9868	0.8720143
88.29606	6476.19	12.88254	-139.3017	0.8691279
88.35005	6468.624	12.97874	-139.5979	0.8694159
88.40404	6460.999	13.07978	-139.8766	0.8726394
88.45803	6453.321	13.18377	-140.1388	0.8785997
88.51202	6445.584	13.29708	-140.3855	0.8871515
88.56601	6437.796	13.42845	-140.6177	0.8981785
88.62	6429.97	13.59065	-140.8365	0.9116591
88.67399	6422.121	13.7888	-141.043	0.9276303
88.72797	6414.257	14.01855	-141.2378	0.946201
88.78197	6406.395	14.26431	-141.4221	0.9675016
88.83595	6398.537	14.50449	-141.5965	0.9917169
88.88995	6390.685	14.71894	-141.7619	1.019007
88.94393	6382.822	14.892	-141.9187	1.049493
88.99792	6374.928	15.01566	-142.0676	1.083252
89.05191	6366.979	15.08521	-142.2088	1.120277
89.1059	6358.967	15.10129	-142.3426	1.160473
89.15989	6350.902	15.06636	-142.4691	1.203629
89.21388	6342.808	14.99026	-142.5885	1.249499
89.26787	6334.709	14.88775	-142.7008	1.297738
89.32186	6326.633	14.77156	-142.806	1.347989
89.37585	6318.594	14.65739	-142.9041	1.399831
89.42984	6310.604	14.55999	-142.995	1.452803
89.48383	6302.668	14.48838	-143.0787	1.506407
89.53782	6294.795	14.44069	-143.1549	1.560072
89.5918	6286.985	14.40798	-143.2236	1.613156
89.6458	6279.244	14.37729	-143.2845	1.665034
89.69978	6271.563	14.33101	-143.3377	1.715052
89.75378	6263.929	14.25357	-143.3829	1.762603
89.80776	6256.315	14.13315	-143.4204	1.807105
89.86176	6248.697	13.96758	-143.4499	1.848061
89.91574	6241.058	13.76359	-143.4716	1.885029
89.96973	6233.404	13.5325	-143.4856	1.917631
90.02372	6225.738	13.2846	-143.4919	1.945575
90.07771	6218.069	13.02667	-143.4909	1.968648
90.1317	6210.388	12.77053	-143.4827	1.986719
90.18569	6202.699	12.52879	-143.4677	1.999713
90.23968	6195.002	12.30999	-143.4463	2.007629
90.29367	6187.303	12.11868	-143.4189	2.01051
90.34766	6179.605	11.95621	-143.3861	2.008458
90.40165	6171.921	11.81657	-143.3485	2.001523
90.45564	6164.244	11.68803	-143.3069	1.989813
90.50963	6156.563	11.553	-143.2619	1.9734
90.56361	6148.872	11.39658	-143.2143	1.952417
90.61761	6141.171	11.2089	-143.1647	1.927041
90.67159	6133.457	10.98859	-143.1138	1.897492
90.72559	6125.736	10.73668	-143.0623	1.864127
90.77957	6118.015	10.45353	-143.0108	1.82734
90.83356	6110.304	10.14426	-142.9597	1.787612
90.88755	6102.602	9.81346	-142.9098	1.745512
90.94154	6094.906	9.470543	-142.8614	1.701644
90.99553	6087.21	9.127269	-142.8149	1.656648
91.04952	6079.512	8.798747	-142.7708	1.61119
91.10351	6071.807	8.499473	-142.7293	1.56595
91.1575	6064.096	8.241025	-142.6908	1.52158
91.21149	6056.378	8.031918	-142.6553	1.478707
91.26548	6048.66	7.876666	-142.6232	1.437883
91.31947	6040.948	7.774669	-142.5946	1.399535
91.37346	6033.24	7.71966	-142.5695	1.363992
91.42744	6025.532	7.701629	-142.5481	1.331443
91.48144	6017.824	7.707268	-142.5305	1.301945
91.53542	6010.12	7.721644	-142.5166	1.275442
91.58942	6002.428	7.737772	-142.5065	1.251741
91.6434	5994.759	7.750665	-142.5001	1.230537
91.6974	5987.113	7.758977	-142.4973	1.211474
91.75138	5979.486	7.766751	-142.498	1.194114
91.80537	5971.864	7.782566	-142.5022	1.178021
91.85936	5964.233	7.81571	-142.5096	1.162761
91.91335	5956.579	7.879961	-142.5199	1.147965
91.96734	5948.897	7.985139	-142.5329	1.133344
92.02133	5941.188	8.13745	-142.5484	1.118686
92.07532	5933.465	8.340449	-142.5661	1.103869
92.12931	5925.737	8.594832	-142.5858	1.088855
92.1833	5918.02	8.894184	-142.6073	1.073699
92.23729	5910.311	9.224497	-142.6306	1.05849
92.29128	5902.619	9.567405	-142.6555	1.043389
92.34527	5894.943	9.91042	-142.682	1.028582
92.39925	5887.285	10.24996	-142.7099	1.014216
92.45325	5879.637	10.5843	-142.7543	0.9400506
92.50723	5872.004	10.91056	-142.7998	0.8650059
92.56123	5864.382	11.22465	-142.8459	0.7920395
92.61521	5856.767	11.52294	-142.892	0.72391
92.6692	5849.151	11.8002	-142.938	0.6630554
92.72319	5841.536	12.04984	-142.9839	0.6118038
92.77718	5833.913	12.26628	-143.0296	0.572368
92.83117	5826.274	12.44438	-143.0751	0.5467172
92.88516	5818.606	12.58537	-143.1205	0.5362255
92.93915	5810.907	12.69524	-143.1658	0.5412145
92.99314	5803.173	12.78513	-143.2111	0.5608432
93.04713	5795.411	12.86624	-143.2565	0.5933517
93.10112	5787.62	12.9492	-143.3019	0.6365713
93.15511	5779.812	13.03362	-143.3474	0.6884013
93.2091	5771.989	13.10733	-143.393	0.7470173
93.26308	5764.162	13.15845	-143.4387	0.8110035
93.31708	5756.343	13.18015	-143.4846	0.879285
93.37106	5748.544	13.16887	-143.5307	0.9510638
93.42506	5740.769	13.12079	-143.577	1.025786
93.47904	5733.021	13.03827	-143.6234	1.103011
93.53304	5725.3	12.93155	-143.6701	1.182458
93.58702	5717.604	12.8112	-143.7169	1.263915
93.64101	5709.93	12.68731	-143.7641	1.347239
93.695	5702.267	12.57001	-143.8114	1.432317
93.74899	5694.61	12.46959	-143.859	1.519087
93.80298	5686.966	12.38558	-143.907	1.607504
93.85697	5679.329	12.31035	-143.9552	1.697539
93.91096	5671.679	12.23802	-144.0037	1.789172
93.96495	5663.98	12.16361	-144.0525	1.882385
94.01894	5656.208	12.08924	-144.1017	1.977178
94.07293	5648.261	12.00531	-144.1512	2.073528
94.12691	5640.298	11.91419	-144.2011	2.171435
94.18091	5632.37	11.83447	-144.2513	2.270874
94.23489	5624.477	11.7711	-144.3018	2.371832
94.28889	5616.611	11.72252	-144.3526	2.474281
94.34287	5608.765	11.68752	-144.4038	2.578192
94.39687	5600.931	11.66518	-144.4552	2.683546
94.45085	5593.104	11.65462	-144.507	2.790303
94.50484	5585.278	11.65419	-144.5591	2.898441
94.55883	5577.452	11.66355	-144.6114	3.007919
94.61282	5569.62	11.68151	-144.664	3.118685
94.66681	5561.78	11.70745	-144.7169	3.230713
94.7208	5553.932	11.74042	-144.7701	3.343959
94.77479	5546.072	11.78059	-144.8234	3.458382
94.82878	5538.199	11.82827	-144.877	3.573935
94.88277	5530.313	11.88389	-144.9308	3.690576
94.93676	5522.415	11.94898	-144.9849	3.808258
94.99075	5514.508	12.024	-145.0391	3.926939
