T[Â°C]	330nm [counts / mm]	S.D.	First derivative	S.D. of first derivative
20.00093	3622.49		-49.68826	
20.05488	3619.742		-49.72028	
20.10883	3617.004		-49.75176	
20.16278	3614.274		-49.78266	
20.21673	3611.553		-49.81295	
20.27068	3608.839		-49.84261	
20.32463	3606.131		-49.87161	
20.37858	3603.428		-49.89993	
20.43253	3600.727		-49.92752	
20.48648	3598.029		-49.95438	
20.54043	3595.332		-49.98047	
20.59438	3592.638		-50.00576	
20.64833	3589.948		-50.03022	
20.70228	3587.261		-50.05383	
20.75623	3584.582		-50.07657	
20.81018	3581.915		-50.09842	
20.86413	3579.266		-50.11934	
20.91808	3576.653		-50.13931	
20.97203	3574.116		-50.15832	
21.02598	3571.667		-50.17635	
21.07994	3569.195		-50.19338	
21.13389	3566.685		-50.2094	
21.18784	3564.132		-50.22441	
21.24179	3561.533		-50.23839	
21.29574	3558.885		-50.25134	
21.34969	3556.195		-50.26329	
21.40364	3553.476		-50.27424	
21.45759	3550.74		-50.28421	
21.51154	3547.999		-50.29324	
21.56549	3545.265		-50.30135	
21.61944	3542.546		-50.30861	
21.67339	3539.835		-50.31504	
21.72734	3537.108		-50.32071	
21.78129	3534.338		-50.3257	
21.83524	3531.508		-50.33006	
21.88919	3528.616		-50.33389	
21.94314	3525.672		-50.33728	
21.99709	3522.692		-50.34035	
22.05104	3519.703		-50.34324	
22.10499	3516.733		-50.34608	
22.15895	3513.8		-50.34904	
22.21289	3510.915		-50.35229	
22.26685	3508.076		-50.356	
22.3208	3505.28		-50.36029	
22.37475	3502.518		-50.36522	
22.4287	3499.782		-50.37064	
22.48265	3497.063		-50.37617	
22.5366	3494.35		-50.3811	
22.59055	3491.627		-50.38442	
22.6445	3488.873		-50.35425	
22.69845	3486.079		-50.32455	
22.7524	3483.242		-50.29547	
22.80635	3480.366		-50.26714	
22.8603	3477.464		-50.23964	
22.91425	3474.557		-50.21298	
22.9682	3471.665		-50.18714	
23.02215	3468.8		-50.16206	
23.0761	3465.969		-50.13763	
23.13005	3463.177		-50.11373	
23.184	3460.429		-50.09026	
23.23796	3457.713		-50.0671	
23.2919	3455.015		-50.04415	
23.34586	3452.325		-50.02128	
23.39981	3449.636		-49.99835	
23.45376	3446.946		-49.97518	
23.50771	3444.253		-49.95161	
23.56166	3441.573		-49.9275	
23.61561	3438.921		-49.90277	
23.66956	3436.306		-49.87738	
23.72351	3433.73		-49.85136	
23.77746	3431.197		-49.82471	
23.83141	3428.715		-49.79747	
23.88536	3426.288		-49.76966	
23.93931	3423.912		-49.74132	
23.99326	3421.582		-49.71244	
24.04721	3419.282		-49.68303	
24.10116	3416.995		-49.65309	
24.15511	3414.696		-49.62259	
24.20906	3412.365		-49.59151	
24.26301	3409.979		-49.5598	
24.31697	3407.521		-49.52747	
24.37091	3404.991		-49.49459	
24.42487	3402.39		-49.46127	
24.47882	3399.716		-49.42761	
24.53277	3396.977		-49.39376	
24.58672	3394.188		-49.35981	
24.64067	3391.373		-49.32582	
24.69462	3388.552		-49.29184	
24.74857	3385.741		-49.25787	
24.80252	3382.942		-49.22391	
24.85647	3380.147		-49.18995	
24.91042	3377.343		-49.15594	
24.96437	3374.523		-49.12185	
25.01832	3371.685		-49.08762	
25.07227	3368.835		-49.05319	
25.12622	3365.987		-49.01857	
25.18017	3363.148		-48.98378	
25.23412	3360.324		-48.94891	
25.28807	3357.519		-48.91409	
25.34202	3354.734		-48.87949	
25.39598	3351.969		-48.84531	
25.44992	3349.22		-48.81175	
25.50388	3346.491		-48.77903	
25.55783	3343.786		-48.74742	
25.61178	3341.113		-48.71716	
25.66573	3338.475		-48.68852	
25.71968	3335.866		-48.66174	
25.77363	3333.266		-48.63698	
25.82758	3330.655		-48.61441	
25.88153	3328.011		-48.5941	
25.93548	3325.334		-48.57612	
25.98943	3322.633		-48.56049	
26.04338	3319.921		-48.54719	
26.09733	3317.208		-48.53616	
26.15128	3314.499		-48.52728	
26.20523	3311.799		-48.52035	
26.25918	3309.11		-48.51513	
26.31313	3306.434		-48.51134	
26.36708	3303.781		-48.50867	
26.42103	3301.152		-48.50689	
26.47499	3298.551		-48.50576	
26.52893	3295.978		-48.50511	
26.58289	3293.43		-48.50475	
26.63684	3290.905		-48.50453	
26.69079	3288.402		-48.50428	
26.74474	3285.928		-48.50389	
26.79869	3283.49		-48.50325	
26.85264	3281.087		-48.50229	
26.90659	3278.716		-48.50095	
26.96054	3276.367		-48.49913	
27.01449	3274.035		-48.49671	
27.06844	3271.714		-48.49354	
27.12239	3269.404		-48.48949	
27.17634	3267.106		-48.48446	
27.23029	3264.818		-48.47835	
27.28424	3262.528		-48.47106	
27.33819	3260.22		-48.46252	
27.39214	3257.88		-48.45265	
27.44609	3255.5		-48.44142	
27.50004	3253.077		-48.42888	
27.55399	3250.613		-48.41514	
27.60794	3248.105		-48.40035	
27.6619	3245.548		-48.3847	
27.71585	3242.932		-48.36835	
27.7698	3240.25		-48.35147	
27.82375	3237.497		-48.33418	
27.8777	3234.677		-48.31663	
27.93165	3231.802		-48.29895	
27.9856	3228.891		-48.28123	
28.03955	3225.957		-48.26359	
28.0935	3223.008		-48.24609	
28.14745	3220.047		-48.22871	
28.2014	3217.081		-48.2114	
28.25535	3214.116		-48.19402	
28.3093	3211.157		-48.17636	
28.36325	3208.213		-48.15821	
28.4172	3205.287		-48.13935	
28.47115	3202.381		-48.11957	
28.5251	3199.502		-48.09864	
28.57905	3196.649		-48.07634	
28.633	3193.826		-48.05243	
28.68695	3191.041		-48.02667	
28.74091	3188.304		-47.99883	
28.79486	3185.621		-47.96871	
28.84881	3183		-47.93616	
28.90276	3180.447		-47.9011	
28.95671	3177.953		-47.86344	
29.01066	3175.5		-47.82316	
29.06461	3173.067		-47.78024	
29.11856	3170.644		-47.73472	
29.17251	3168.229		-47.68665	
29.22646	3165.819		-47.63612	
29.28041	3163.406		-47.58322	
29.33436	3160.975		-47.52805	
29.38831	3158.509		-47.4707	
29.44226	3156.002		-47.41125	
29.49621	3153.462		-47.34985	
29.55016	3150.91		-47.28668	
29.60411	3148.368		-47.22201	
29.65806	3145.848		-47.15617	
29.71201	3143.353		-47.08954	
29.76596	3140.881		-47.02253	
29.81992	3138.424		-46.95558	
29.87387	3135.976		-46.88916	
29.92782	3133.54		-46.82379	
29.98177	3131.113		-46.76001	
30.03572	3128.69		-46.69839	
30.08967	3126.264		-46.63947	
30.14362	3123.829		-46.58371	
30.19757	3121.389		-46.53145	
30.25152	3118.952		-46.48296	
30.30547	3116.534		-46.4384	
30.35942	3114.148		-46.39787	
30.41337	3111.795		-46.36143	
30.46732	3109.474		-46.32904	
30.52127	3107.178		-46.30061	
30.57522	3104.894		-46.27599	
30.62917	3102.608		-46.25496	
30.68312	3100.311		-46.23727	
30.73707	3097.995		-46.22265	
30.79102	3095.653		-46.21078	
30.84497	3093.275		-46.20137	
30.89892	3090.852		-46.19409	
30.95288	3088.374		-46.18862	
31.00683	3085.838		-46.18463	
31.06078	3083.251		-46.18179	
31.11473	3080.627		-46.17978	
31.16868	3077.98		-46.17828	
31.22263	3075.316		-46.17695	
31.27658	3072.646		-46.1755	
31.33053	3069.977		-46.17361	
31.38448	3067.31		-46.17098	
31.43843	3064.645		-46.1673	
31.49238	3061.982		-46.16222	
31.54633	3059.323		-46.15536	
31.60028	3056.67		-46.14638	
31.65423	3054.023		-46.13493	
31.70818	3051.385		-46.12069	
31.76213	3048.753		-46.10342	
31.81608	3046.131		-46.08287	
31.87003	3043.531		-46.0589	
31.92398	3040.963		-46.03138	
31.97793	3038.44		-46.00033	
32.03188	3035.968		-45.96586	
32.08583	3033.538		-45.92816	
32.13979	3031.136		-45.88747	
32.19374	3028.744		-45.84406	
32.24769	3026.351		-45.79824	
32.30164	3023.946		-45.75032	
32.35559	3021.524		-45.7006	
32.40954	3019.079		-45.64942	
32.46349	3016.611		-45.59706	
32.51744	3014.116		-45.54378	
32.57139	3011.595		-45.48978	
32.62534	3009.046		-45.4352	
32.67929	3006.479		-45.38021	
32.73324	3003.911		-45.32495	
32.78719	3001.364		-45.26957	
32.84114	2998.851		-45.21426	
32.89509	2996.374		-45.15916	
32.94904	2993.927		-45.10444	
33.00299	2991.501		-45.05021	
33.05695	2989.094		-44.99659	
33.11089	2986.7		-44.94372	
33.16484	2984.304		-44.89174	
33.2188	2981.894		-44.84084	
33.27275	2979.465		-44.79127	
33.3267	2977.021		-44.74328	
33.38065	2974.572		-44.69714	
33.4346	2972.128		-44.65306	
33.48855	2969.708		-44.61121	
33.5425	2967.328		-44.57172	
33.59645	2965.005		-44.53463	
33.6504	2962.749		-44.49996	
33.70435	2960.558		-44.46767	
33.7583	2958.421		-44.43768	
33.81225	2956.322		-44.40988	
33.8662	2954.235		-44.38412	
33.92015	2952.134		-44.36021	
33.9741	2949.997		-44.33795	
34.02805	2947.816		-44.31714	
34.082	2945.585		-44.29761	
34.13596	2943.305		-44.27922	
34.1899	2940.98		-44.26188	
34.24385	2938.622		-44.24553	
34.29781	2936.235		-44.23016	
34.35176	2933.83		-44.21577	
34.40571	2931.415		-44.20237	
34.45966	2929		-44.18996	
34.51361	2926.594		-44.17853	
34.56756	2924.196		-44.16804	
34.62151	2921.795		-44.15839	
34.67546	2919.375		-44.14949	
34.72941	2916.923		-44.14118	
34.78336	2914.432		-44.13331	
34.83731	2911.898		-44.12569	
34.89126	2909.326		-44.1181	
34.94521	2906.73		-44.11029	
34.99916	2904.126		-44.10203	
35.05311	2901.534		-44.09306	
35.10706	2898.974		-44.08318	
35.16101	2896.458		-44.07221	
35.21497	2893.995		-44.06005	
35.26891	2891.585		-44.04663	
35.32286	2889.224		-44.03197	
35.37682	2886.904		-44.01608	
35.43077	2884.607		-43.999	
35.48472	2882.315		-43.98079	
35.53867	2880.014		-43.96149	
35.59262	2877.698		-43.94116	
35.64657	2875.365		-43.91988	
35.70052	2873.01		-43.89768	
35.75447	2870.634		-43.87463	
35.80842	2868.238		-43.85078	
35.86237	2865.822		-43.8262	
35.91632	2863.387		-43.80096	
35.97027	2860.942		-43.77514	
36.02422	2858.497		-43.74878	
36.07817	2856.065		-43.72197	
36.13212	2853.654		-43.69476	
36.18607	2851.265		-43.66726	
36.24002	2848.891		-43.63954	
36.29398	2846.518		-43.61171	
36.34792	2844.128		-43.58389	
36.40187	2841.713		-43.55622	
36.45583	2839.273		-43.52891	
36.50978	2836.821		-43.50222	
36.56373	2834.365		-43.47644	
36.61768	2831.92		-43.45192	
36.67163	2829.498		-43.42895	
36.72558	2827.114		-43.40782	
36.77953	2824.774		-43.38877	
36.83348	2822.487		-43.37194	
36.88743	2820.255		-43.35747	
36.94138	2818.078		-43.34541	
36.99533	2815.95		-43.3358	
37.04928	2813.862		-43.32862	
37.10323	2811.799		-43.32376	
37.15718	2809.749		-43.32107	
37.21113	2807.695		-43.32034	
37.26508	2805.623		-43.32131	
37.31903	2803.52		-43.3237	
37.37299	2801.378		-43.32721	
37.42693	2799.188		-43.33162	
37.48088	2796.947		-43.33668	
37.53484	2794.655		-43.3422	
37.58879	2792.321		-43.348	
37.64274	2789.959		-43.35392	
37.69669	2787.588		-43.35976	
37.75064	2785.22		-43.36537	
37.80459	2782.861		-43.37056	
37.85854	2780.51		-43.37517	
37.91249	2778.156		-43.37907	
37.96644	2775.784		-43.38214	
38.02039	2773.385		-43.38424	
38.07434	2770.957		-43.3852	
38.12829	2768.503		-43.38482	
38.18224	2766.03		-43.38291	
38.23619	2763.546		-43.37924	
38.29014	2761.061		-43.37359	
38.34409	2758.581		-43.36573	
38.39804	2756.114		-43.35551	
38.45199	2753.663		-43.3428	
38.50594	2751.235		-43.32755	
38.55989	2748.837		-43.30982	
38.61385	2746.478		-43.2897	
38.6678	2744.161		-43.26735	
38.72174	2741.88		-43.24296	
38.7757	2739.623		-43.21674	
38.82965	2737.371		-43.18892	
38.8836	2735.109		-43.15973	
38.93755	2732.82		-43.12946	
38.9915	2730.491		-43.09836	
39.04545	2728.113		-43.06668	
39.0994	2725.677		-43.0346	
39.15335	2723.187		-43.00224	
39.2073	2720.652		-42.96962	
39.26125	2718.092		-42.93673	
39.3152	2715.527		-42.90345	
39.36915	2712.978		-42.86964	
39.4231	2710.457		-42.83514	
39.47705	2707.969		-42.79979	
39.531	2705.516		-42.76347	
39.58495	2703.095		-42.72606	
39.6389	2700.7		-42.68745	
39.69286	2698.329		-42.64759	
39.74681	2695.975		-42.60647	
39.80075	2693.645		-42.56409	
39.85471	2691.344		-42.5205	
39.90866	2689.074		-42.47583	
39.96261	2686.831		-42.43018	
40.01656	2684.61		-42.38368	
40.07051	2682.413		-42.33641	
40.12446	2680.246		-42.28848	
40.17841	2678.109		-42.23996	
40.23236	2676.012		-42.19096	
40.28631	2673.962		-42.14156	
40.34026	2671.958		-42.09184	
40.39421	2669.991		-42.04178	
40.44816	2668.041		-41.99138	
40.50211	2666.084		-41.94056	
40.55606	2664.105		-41.88925	
40.61001	2662.098		-41.83736	
40.66396	2660.062		-41.78483	
40.71791	2657.988		-41.73165	
40.77187	2655.869		-41.67786	
40.82582	2653.699		-41.62356	
40.87976	2651.48		-41.56887	
40.93372	2649.219		-41.51394	
40.98767	2646.929		-41.45895	
41.04162	2644.616		-41.40412	
41.09557	2642.287		-41.34968	
41.14952	2639.941		-41.29591	
41.20347	2637.576		-41.24306	
41.25742	2635.193		-41.19136	
41.31137	2632.796		-41.141	
41.36532	2630.391		-41.09211	
41.41927	2627.982		-41.04476	
41.47322	2625.576		-40.99892	
41.52717	2623.183		-40.95454	
41.58112	2620.804		-40.91147	
41.63507	2618.442		-40.86958	
41.68902	2616.096		-40.8287	
41.74297	2613.771		-40.7887	
41.79692	2611.478		-40.74947	
41.85088	2609.23		-40.7109	
41.90483	2607.034		-40.67292	
41.95877	2604.889		-40.63551	
42.01273	2602.786		-40.59864	
42.06668	2600.708		-40.56235	
42.12063	2598.633		-40.52671	
42.17458	2596.54		-40.49186	
42.22853	2594.421		-40.45798	
42.28248	2592.271		-40.42525	
42.33643	2590.093		-40.39387	
42.39038	2587.89		-40.36399	
42.44433	2585.663		-40.33571	
42.49828	2583.415		-40.30906	
42.55223	2581.153		-40.28402	
42.60618	2578.893		-40.26058	
42.66013	2576.649		-40.23872	
42.71408	2574.425		-40.21843	
42.76803	2572.218		-40.19971	
42.82198	2570.02		-40.18257	
42.87593	2567.825		-40.16701	
42.92989	2565.635		-40.15301	
42.98384	2563.454		-40.14056	
43.03778	2561.286		-40.12969	
43.09174	2559.137		-40.12047	
43.14569	2557.009		-40.11307	
43.19964	2554.905		-40.10768	
43.25359	2552.825		-40.10447	
43.30754	2550.763		-40.10357	
43.36149	2548.713		-40.10505	
43.41544	2546.683		-40.10892	
43.46939	2544.684		-40.11509	
43.52334	2542.727		-40.12342	
43.57729	2540.815		-40.13369	
43.63124	2538.938		-40.14566	
43.68519	2537.081		-40.15903	
43.73914	2535.222		-40.17347	
43.79309	2533.343		-40.18861	
43.84704	2531.428		-40.20409	
43.90099	2529.464		-40.21952	
43.95494	2527.449		-40.23452	
44.0089	2525.383		-40.24876	
44.06284	2523.27		-40.26193	
44.11679	2521.117		-40.2738	
44.17075	2518.928		-40.28415	
44.2247	2516.703		-40.29281	
44.27865	2514.445		-40.29963	
44.3326	2512.158		-40.30452	
44.38655	2509.845		-40.30739	
44.4405	2507.51		-40.30822	
44.49445	2505.149		-40.307	
44.5484	2502.768		-40.30377	
44.60235	2500.379		-40.2986	
44.6563	2497.994		-40.29155	
44.71025	2495.624		-40.28268	
44.7642	2493.272		-40.27205	
44.81815	2490.937		-40.2597	
44.8721	2488.615		-40.24565	
44.92605	2486.305		-40.22988	
44.98	2484.006		-40.21235	
45.03395	2481.718		-40.19303	
45.08791	2479.439		-40.17191	
45.14185	2477.173		-40.14901	
45.1958	2474.923		-40.12434	
45.24976	2472.69		-40.09787	
45.30371	2470.469		-40.06957	
45.35766	2468.25		-40.03936	
45.41161	2466.021		-40.00722	
45.46556	2463.779		-39.97311	
45.51951	2461.526		-39.93701	
45.57346	2459.27		-39.89891	
45.62741	2457.011		-39.8588	
45.68136	2454.751		-39.81665	
45.73531	2452.49		-39.77242	
45.78926	2450.232		-39.72607	
45.84321	2447.988		-39.67752	
45.89716	2445.766		-39.62677	
45.95111	2443.579		-39.57383	
46.00506	2441.432		-39.51876	
46.05901	2439.326		-39.46169	
46.11296	2437.253		-39.40278	
46.16692	2435.205		-39.34224	
46.22086	2433.171		-39.28026	
46.27481	2431.138		-39.21709	
46.32877	2429.103		-39.15303	
46.38272	2427.073		-39.08842	
46.43667	2425.051		-39.02371	
46.49062	2423.043		-38.9594	
46.54457	2421.054		-38.89607	
46.59852	2419.085		-38.83433	
46.65247	2417.138		-38.7748	
46.70642	2415.216		-38.71806	
46.76037	2413.321		-38.66469	
46.81432	2411.459		-38.61523	
46.86827	2409.629		-38.57021	
46.92222	2407.823		-38.53007	
46.97617	2406.027		-38.49522	
47.03012	2404.22		-38.46599	
47.08407	2402.376		-38.44262	
47.13802	2400.474		-38.42525	
47.19197	2398.5		-38.41393	
47.24593	2396.457		-38.40861	
47.29987	2394.346		-38.40915	
47.35382	2392.173		-38.41535	
47.40778	2389.952		-38.42698	
47.46173	2387.708		-38.44378	
47.51568	2385.467		-38.46545	
47.56963	2383.252		-38.49165	
47.62358	2381.075		-38.52194	
47.67753	2378.941		-38.55584	
47.73148	2376.841		-38.59277	
47.78543	2374.76		-38.63211	
47.83938	2372.687		-38.67317	
47.89333	2370.611		-38.71529	
47.94728	2368.521		-38.75781	
48.00123	2366.411		-38.80011	
48.05518	2364.286		-38.84159	
48.10913	2362.159		-38.88165	
48.16308	2360.042		-38.91968	
48.21703	2357.944		-38.95507	
48.27098	2355.873		-38.98724	
48.32494	2353.835		-39.01564	
48.37888	2351.83		-39.03987	
48.43283	2349.856		-39.0596	
48.48679	2347.913		-39.0746	
48.54074	2345.987		-39.08477	
48.59469	2344.062		-39.09008	
48.64864	2342.118		-39.09053	
48.70259	2340.129		-39.08619	
48.75654	2338.082		-39.07713	
48.81049	2335.973		-39.0635	
48.86444	2333.803		-39.04555	
48.91839	2331.577		-39.02357	
48.97234	2329.303		-38.99792	
49.02629	2326.985		-38.969	
49.08024	2324.623		-38.93723	
49.13419	2322.225		-38.90302	
49.18814	2319.805		-38.86678	
49.24209	2317.382		-38.82892	
49.29604	2314.97		-38.78983	
49.34999	2312.574		-38.74987	
49.40395	2310.2		-38.7094	
49.45789	2307.854		-38.6687	
49.51184	2305.538		-38.628	
49.5658	2303.253		-38.58747	
49.61975	2300.997		-38.54724	
49.6737	2298.774		-38.50735	
49.72765	2296.591		-38.46781	
49.7816	2294.45		-38.42857	
49.83555	2292.356		-38.38955	
49.8895	2290.309		-38.35064	
49.94345	2288.302		-38.31175	
49.9974	2286.326		-38.27278	
50.05135	2284.374		-38.23364	
50.1053	2282.438		-38.19422	
50.15925	2280.518		-38.15437	
50.2132	2278.62		-38.11392	
50.26715	2276.747		-38.07272	
50.3211	2274.901		-38.03062	
50.37505	2273.081		-37.98756	
50.429	2271.281		-37.9435	
50.48295	2269.485		-37.8985	
50.5369	2267.673		-37.85266	
50.59085	2265.832		-37.80611	
50.64481	2263.956		-37.75904	
50.69876	2262.044		-37.71165	
50.7527	2260.111		-37.66414	
50.80666	2258.165		-37.61675	
50.86061	2256.213		-37.56975	
50.91456	2254.259		-37.52345	
50.96851	2252.304		-37.47819	
51.02246	2250.342		-37.43432	
51.07641	2248.365		-37.39222	
51.13036	2246.366		-37.35222	
51.18431	2244.348		-37.31468	
51.23826	2242.32		-37.27991	
51.29221	2240.293		-37.2482	
51.34616	2238.27		-37.21979	
51.40011	2236.249		-37.19484	
51.45406	2234.226		-37.17345	
51.50801	2232.199		-37.15565	
51.56196	2230.162		-37.14138	
51.61591	2228.113		-37.13052	
51.66986	2226.057		-37.12289	
51.72382	2224.003		-37.11832	
51.77777	2221.954		-37.11655	
51.83171	2219.915		-37.11732	
51.88567	2217.891		-37.1203	
51.93962	2215.885		-37.12515	
51.99357	2213.89		-37.13149	
52.04752	2211.896		-37.13895	
52.10147	2209.891		-37.14711	
52.15542	2207.861		-37.15556	
52.20937	2205.797		-37.16388	
52.26332	2203.699		-37.17169	
52.31727	2201.581		-37.17859	
52.37122	2199.463		-37.18422	
52.42517	2197.362		-37.18829	
52.47912	2195.288		-37.19054	
52.53307	2193.234		-37.19074	
52.58702	2191.192		-37.18872	
52.64097	2189.151		-37.18437	
52.69492	2187.107		-37.17763	
52.74887	2185.062		-37.1685	
52.80283	2183.02		-37.15702	
52.85678	2180.99		-37.14327	
52.91072	2178.979		-37.12735	
52.96468	2176.986		-37.10936	
53.01863	2175.001		-37.08942	
53.07258	2173.011		-37.06766	
53.12653	2171.007		-37.04422	
53.18048	2168.986		-37.01929	
53.23443	2166.953		-36.99308	
53.28838	2164.92		-36.96579	
53.34233	2162.9		-36.93762	
53.39628	2160.904		-36.90878	
53.45023	2158.935		-36.87945	
53.50418	2156.993		-36.84985	
53.55813	2155.069		-36.82019	
53.61208	2153.156		-36.7907	
53.66603	2151.245		-36.7616	
53.71998	2149.327		-36.73314	
53.77393	2147.394		-36.70559	
53.82788	2145.448		-36.67919	
53.88184	2143.494		-36.65414	
53.93579	2141.536		-36.63061	
53.98973	2139.576		-36.60873	
54.04369	2137.613		-36.58855	
54.09764	2135.641		-36.57011	
54.15159	2133.657		-36.55343	
54.20554	2131.662		-36.5385	
54.25949	2129.66		-36.52531	
54.31344	2127.656		-36.51382	
54.36739	2125.657		-36.50401	
54.42134	2123.669		-36.49581	
54.47529	2121.7		-36.48911	
54.52924	2119.756		-36.48377	
54.58319	2117.837		-36.47961	
54.63714	2115.938		-36.47643	
54.69109	2114.053		-36.47401	
54.74504	2112.172		-36.47208	
54.79899	2110.29		-36.47043	
54.85294	2108.402		-36.46881	
54.90689	2106.503		-36.46695	
54.96085	2104.581		-36.46461	
55.0148	2102.634		-36.46151	
55.06874	2100.666		-36.45738	
55.1227	2098.683		-36.45198	
55.17665	2096.693		-36.44506	
55.2306	2094.704		-36.43643	
55.28455	2092.72		-36.42592	
55.3385	2090.746		-36.4134	
55.39245	2088.783		-36.39877	
55.4464	2086.836		-36.38196	
55.50035	2084.904		-36.36296	
55.5543	2082.985		-36.34181	
55.60825	2081.072		-36.31858	
55.6622	2079.157		-36.29338	
55.71615	2077.231		-36.26637	
55.7701	2075.287		-36.23774	
55.82405	2073.321		-36.20773	
55.878	2071.333		-36.17662	
55.93195	2069.326		-36.14468	
55.9859	2067.303		-36.11224	
56.03986	2065.26		-36.07961	
56.0938	2063.194		-36.04712	
56.14775	2061.11		-36.01509	
56.20171	2059.018		-35.98384	
56.25566	2056.93		-35.95367	
56.30961	2054.855		-35.9249	
56.36356	2052.798		-35.89778	
56.41751	2050.758		-35.87255	
56.47146	2048.732		-35.84943	
56.52541	2046.719		-35.82856	
56.57936	2044.714		-35.81001	
56.63331	2042.72		-35.79385	
56.68726	2040.734		-35.78008	
56.74121	2038.754		-35.76866	
56.79516	2036.78		-35.75951	
56.84911	2034.81		-35.75254	
56.90306	2032.845		-35.74761	
56.95701	2030.883		-35.74457	
57.01096	2028.932		-35.74327	
57.06491	2026.999		-35.74356	
57.11887	2025.089		-35.7453	
57.17281	2023.206		-35.74831	
57.22676	2021.36		-35.75242	
57.28072	2019.553		-35.75739	
57.33467	2017.789		-35.76301	
57.38862	2016.063		-35.76902	
57.44257	2014.371		-35.77517	
57.49652	2012.702		-35.7812	
57.55047	2011.032		-35.78686	
57.60442	2009.339		-35.79194	
57.65837	2007.611		-35.79624	
57.71232	2005.844		-35.79959	
57.76627	2004.041		-35.80186	
57.82022	2002.208		-35.80294	
57.87417	2000.356		-35.80277	
57.92812	1998.495		-35.80137	
57.98207	1996.631		-35.79879	
58.03602	1994.762		-35.7951	
58.08997	1992.884		-35.79046	
58.14392	1990.993		-35.785	
58.19788	1989.094		-35.77887	
58.25182	1987.189		-35.77219	
58.30577	1985.284		-35.76505	
58.35973	1983.376		-35.7575	
58.41368	1981.454		-35.74956	
58.46763	1979.505		-35.74118	
58.52158	1977.516		-35.73228	
58.57553	1975.486		-35.72272	
58.62948	1973.42		-35.71234	
58.68343	1971.328		-35.701	
58.73738	1969.222		-35.68856	
58.79133	1967.117		-35.67492	
58.84528	1965.025		-35.6599	
58.89923	1962.95		-35.6434	
58.95318	1960.893		-35.62525	
59.00713	1958.849		-35.60535	
59.06108	1956.811		-35.58359	
59.11503	1954.769		-35.55991	
59.16898	1952.717		-35.53426	
59.22293	1950.652		-35.50655	
59.27689	1948.577		-35.47671	
59.33083	1946.498		-35.44463	
59.38478	1944.426		-35.41018	
59.43874	1942.374		-35.37328	
59.49269	1940.353		-35.33384	
59.54664	1938.359		-35.29183	
59.60059	1936.383		-35.24722	
59.65454	1934.419		-35.20005	
59.70849	1932.462		-35.15034	
59.76244	1930.513		-35.09821	
59.81639	1928.582		-35.04378	
59.87034	1926.679		-34.98721	
59.92429	1924.81		-34.92867	
59.97824	1922.97		-34.86839	
60.03219	1921.151		-34.8066	
60.08614	1919.342		-34.7436	
60.14009	1917.534		-34.6797	
60.19404	1915.719		-34.61523	
60.24799	1913.894		-34.55055	
60.30194	1912.065		-34.48601	
60.3559	1910.243		-34.42194	
60.40984	1908.435		-34.35862	
60.46379	1906.643		-34.29628	
60.51775	1904.871		-34.23508	
60.5717	1903.114		-34.17515	
60.62565	1901.361		-34.11657	
60.6796	1899.603		-34.05942	
60.73355	1897.834		-34.00375	
60.7875	1896.058		-33.9496	
60.84145	1894.285		-33.89699	
60.8954	1892.522		-33.84589	
60.94935	1890.779		-33.79619	
61.0033	1889.06		-33.74777	
61.05725	1887.369		-33.70044	
61.1112	1885.699		-33.654	
61.16515	1884.04		-33.60819	
61.2191	1882.376		-33.56274	
61.27305	1880.697		-33.51733	
61.327	1878.994		-33.47167	
61.38095	1877.267		-33.42546	
61.43491	1875.525		-33.3784	
61.48885	1873.778		-33.33022	
61.5428	1872.034		-33.28063	
61.59676	1870.298		-33.22934	
61.65071	1868.563		-33.17603	
61.70466	1866.82		-33.12041	
61.75861	1865.061		-33.06218	
61.81256	1863.285		-33.001	
61.86651	1861.493		-32.9366	
61.92046	1859.685		-32.86864	
61.97441	1857.856		-32.79683	
62.02836	1856.003		-32.72083	
62.08231	1854.125		-32.64025	
62.13626	1852.226		-32.55476	
62.19021	1850.31		-32.46395	
62.24416	1848.378		-32.36747	
62.29811	1846.435		-32.26499	
62.35206	1844.487		-32.15619	
62.40601	1842.542		-32.04081	
62.45996	1840.609		-31.91862	
62.51391	1838.694		-31.78941	
62.56786	1836.8		-31.653	
62.62181	1834.925		-31.50924	
62.67577	1833.064		-31.35802	
62.72972	1831.217		-31.19924	
62.78366	1829.383		-31.03285	
62.83762	1827.558		-30.85874	
62.89157	1825.737		-30.67684	
62.94552	1823.919		-30.48707	
62.99947	1822.11		-30.28928	
63.05342	1820.318		-30.08337	
63.10737	1818.548		-29.86916	
63.16132	1816.805		-29.64648	
63.21527	1815.088		-29.41519	
63.26922	1813.397		-29.17512	
63.32317	1811.729		-28.92617	
63.37712	1810.079		-28.6682	
63.43107	1808.446		-28.40111	
63.48502	1806.831		-28.12484	
63.53897	1805.237		-27.83927	
63.59292	1803.668		-27.54433	
63.64687	1802.127		-27.23985	
63.70082	1800.622		-26.9257	
63.75478	1799.156		-26.60173	
63.80873	1797.729		-26.2678	
63.86267	1796.336		-25.92379	
63.91663	1794.971		-25.56952	
63.97058	1793.621		-25.20487	
64.02453	1792.276		-24.82967	
64.07848	1790.93		-24.44371	
64.13243	1789.588		-24.04662	
64.18638	1788.259		-23.63815	
64.24033	1786.95		-23.21773	
64.29428	1785.665		-22.78502	
64.34823	1784.409		-22.33941	
64.40218	1783.186		-21.88023	
64.45613	1782		-21.40701	
64.51009	1780.846		-20.91894	
64.56403	1779.726		-20.4155	
64.61798	1778.634		-19.89593	
64.67194	1777.569		-19.35949	
64.72588	1776.527		-18.80568	
64.77984	1775.51		-18.23363	
64.83379	1774.513		-17.64287	
64.88773	1773.535		-17.03263	
64.94169	1772.567		-16.40207	
64.99564	1771.603		-15.75064	
65.04958	1770.636		-15.07737	
65.10354	1769.664		-14.38132	
65.15749	1768.69		-13.66167	
65.21144	1767.723		-12.91715	
65.26539	1766.775		-12.14693	
65.31934	1765.857		-11.3497	
65.37329	1764.975		-10.52425	
65.42724	1764.135		-9.669541	
65.48119	1763.337		-8.784052	
65.53514	1762.573		-7.866826	
65.58909	1761.832		-6.916385	
65.64304	1761.107		-5.931404	
65.69699	1760.399		-4.91083	
65.75095	1759.709		-3.853056	
65.80489	1759.046		-2.757193	
65.85884	1758.422		-1.621757	
65.9128	1757.852		-0.4455042	
65.96674	1757.343		0.7724521	
66.0207	1756.894		2.033623	
66.07465	1756.507		3.338662	
66.12859	1756.186		4.688949	
66.18255	1755.937		6.085628	
66.2365	1755.768		7.529469	
66.29045	1755.686		9.022054	
66.3444	1755.699		10.564	
66.39835	1755.808		12.15683	
66.4523	1756.011		13.80183	
66.50625	1756.301		15.49981	
66.5602	1756.671		17.25253	
66.61415	1757.112		19.06049	
66.6681	1757.621		20.92512	
66.72205	1758.202		22.84746	
66.776	1758.864		24.828	
66.82996	1759.624		26.868	
66.8839	1760.502		28.96759	
66.93785	1761.509		31.12772	
66.99181	1762.656		33.3491	
67.04575	1763.944		35.63179	
67.09971	1765.37		37.97683	
67.15366	1766.922		40.38399	
67.2076	1768.589		42.85405	
67.26156	1770.362		45.38757	
67.31551	1772.233		47.98436	
67.36946	1774.2		50.64548	
67.42341	1776.273		53.37054	
67.47736	1778.466		56.16042	
67.53131	1780.797		59.01578	
67.58526	1783.292		61.93645	
67.63921	1785.975		64.92374	
67.69316	1788.861		67.97705	
67.74711	1791.962		71.09749	
67.80106	1795.28		74.28564	
67.85501	1798.81		77.54118	
67.90897	1802.544		80.86536	
67.96291	1806.47		84.25734	
68.01686	1810.579		87.71815	
68.07082	1814.861		91.24831	
68.12476	1819.303		94.84725	
68.17872	1823.898		98.5162	
68.23267	1828.642		102.2541	
68.28661	1833.544		106.0618	
68.34057	1838.623		109.9399	
68.39452	1843.901		113.8874	
68.44847	1849.403		117.9057	
68.50242	1855.146		121.9934	
68.55637	1861.143		126.1514	
68.61032	1867.403		130.3801	
68.66427	1873.927		134.6784	
68.71822	1880.709		139.0472	
68.77217	1887.742		143.4848	
68.82612	1895.015		147.9916	
68.88007	1902.516		152.5675	
68.93402	1910.234		157.2106	
68.98798	1918.168		161.9214	
69.04192	1926.32		166.6973	
69.09587	1934.701		171.538	
69.14983	1943.323		176.4425	
69.20377	1952.197		181.4079	
69.25773	1961.342		186.4338	
69.31168	1970.77		191.5165	
69.36562	1980.496		196.6547	
69.41958	1990.535		201.8464	
69.47353	2000.89		207.0877	
69.52748	2011.571		212.3773	
69.58143	2022.57		217.7107	
69.63538	2033.879		223.0856	
69.68933	2045.491		228.4991	
69.74328	2057.399		233.9461	
69.79723	2069.603		239.4242	
69.85118	2082.097		244.9272	
69.90513	2094.882		250.4513	
69.95908	2107.964		255.9918	
70.01303	2121.352		261.5417	
70.06699	2135.067		267.0964	
70.12093	2149.117		272.6477	
70.17488	2163.521		278.1891	
70.22884	2178.287		283.7139	
70.28278	2193.424		289.2122	
70.33674	2208.942		294.6771	
70.39069	2224.835		300.098	
70.44463	2241.101		305.4659	
70.49859	2257.744		310.7721	
70.55254	2274.758		316.0047	
70.60649	2292.155		321.1547	
70.66044	2309.927		326.2102	
70.71439	2328.076		331.1607	
70.76834	2346.595		335.9961	
70.82229	2365.478		340.7033	
70.87624	2384.729		345.2724	
70.93019	2404.345		349.6906	
70.98414	2424.33		353.9467	
71.03809	2444.692		358.0302	
71.09204	2465.429		361.928	
71.146	2486.547		365.6299	
71.19994	2508.031		369.1244	
71.25389	2529.865		372.4005	
71.30785	2552.027		375.4489	
71.36179	2574.487		378.2584	
71.41575	2597.232		380.8203	
71.4697	2620.24		383.1259	
71.52364	2643.507		385.1664	
71.5776	2667.031		386.9361	
71.63155	2690.802		388.4271	
71.6855	2714.824		389.6341	
71.73945	2739.087		390.5532	
71.7934	2763.593		391.1794	
71.84735	2788.334		391.5112	
71.9013	2813.294		391.5455	
71.95525	2838.468		391.2811	
72.0092	2863.826		390.7189	
72.06315	2889.347		389.8579	
72.1171	2915		388.7008	
72.17105	2940.738		387.2487	
72.22501	2966.53		385.5043	
72.27895	2992.325		383.4724	
72.3329	3018.072		381.1558	
72.38686	3043.716		378.5604	
72.4408	3069.199		375.6914	
72.49476	3094.482		372.5543	
72.54871	3119.521		369.158	
72.60265	3144.279		365.5081	
72.65661	3168.719		361.6135	
72.71056	3192.786		357.4828	
72.76451	3216.439		353.124	
72.81846	3239.627		348.5486	
72.87241	3262.312		343.7649	
72.92636	3284.456		338.7832	
72.98031	3306.015		333.6147	
73.03426	3326.963		328.2686	
73.08821	3347.262		322.7579	
73.14216	3366.899		317.0922	
73.19611	3385.865		311.2825	
73.25006	3404.145		305.3416	
73.30402	3421.732		299.2792	
73.35796	3438.616		293.1091	
73.41191	3454.785		286.8418	
73.46587	3470.237		280.4885	
73.51981	3484.965		274.0626	
73.57377	3498.987		267.5741	
73.62772	3512.322		261.0369	
73.68166	3525.002		254.4619	
73.73562	3537.06		247.8599	
73.78957	3548.524		241.245	
73.84352	3559.419		234.627	
73.89747	3569.76		228.0197	
73.95142	3579.563		221.434	
74.00537	3588.855		214.8804	
74.05932	3597.66		208.3726	
74.11327	3606.004		201.9199	
74.16722	3613.914		195.5349	
74.22117	3621.419		189.228	
74.27512	3628.546		183.0078	
74.32907	3635.313		176.8865	
74.38303	3641.738		170.8718	
74.43697	3647.838		164.9736	
74.49092	3653.639		159.1998	
74.54488	3659.168		153.5572	
74.59882	3664.452		148.0541	
74.65278	3669.524		142.6957	
74.70673	3674.415		137.4884	
74.76067	3679.149		132.4369	
74.81463	3683.741		127.5445	
74.86858	3688.206		122.8159	
74.92253	3692.568		118.2524	
74.97648	3696.844		113.8566	
75.03043	3701.041		109.6291	
75.08438	3705.166		105.5693	
75.13833	3709.22		101.6778	
75.19228	3713.211		97.95206	
75.24623	3717.144		94.3907	
75.30018	3721.022		90.99091	
75.35413	3724.844		87.74873	
75.40808	3728.604		84.66109	
75.46204	3732.29		81.72268	
75.51598	3735.891		78.92876	
75.56993	3739.395		76.27364	
75.62389	3742.8		73.75069	
75.67783	3746.104		71.35407	
75.73179	3749.323		69.07634	
75.78574	3752.478		66.91079	
75.83968	3755.584		64.85019	
75.89364	3758.649		62.88699	
75.94759	3761.673		61.01456	
76.00154	3764.649		59.22542	
76.05549	3767.558		57.51305	
76.10944	3770.375		55.87079	
76.16339	3773.08		54.29203	
76.21734	3775.656		52.77117	
76.27129	3778.096		51.30212	
76.32524	3780.402		49.87984	
76.37919	3782.589		48.49928	
76.43314	3784.679		47.15566	
76.48709	3786.697		45.84518	
76.54105	3788.667		44.56376	
76.59499	3790.617		43.30834	
76.64894	3792.57		42.07588	
76.7029	3794.546		40.86369	
76.75684	3796.547		39.67002	
76.8108	3798.562		38.49285	
76.86475	3800.581		37.33116	
76.91869	3802.592		36.18377	
76.97265	3804.587		35.04978	
77.0266	3806.553		33.92901	
77.08054	3808.484		32.82106	
77.1345	3810.377		31.72573	
77.18845	3812.24		30.64352	
77.2424	3814.079		29.57447	
77.29635	3815.903		28.51938	
77.3503	3817.716		27.47871	
77.40425	3819.517		26.45293	
77.4582	3821.288		25.44295	
77.51215	3823.01		24.44904	
77.5661	3824.666		23.472	
77.62005	3826.242		22.5121	
77.674	3827.717		21.56949	
77.72795	3829.076		20.64469	
77.78191	3830.316		19.73761	
77.83585	3831.445		18.84861	
77.8898	3832.469		17.97762	
77.94376	3833.402		17.1245	
77.9977	3834.248		16.28948	
78.05166	3835.006		15.47222	
78.10561	3835.674		14.67283	
78.15955	3836.251		13.89103	
78.21351	3836.732		13.12644	
78.26746	3837.104		12.37908	
78.32141	3837.367		11.64854	
78.37536	3837.522		10.93486	
78.42931	3837.571		10.23794	
78.48326	3837.52		9.55775	
78.53721	3837.382		8.894842	
78.59116	3837.183		8.249445	
78.64511	3836.951		7.622312	
78.69906	3836.713		7.014039	
78.75301	3836.48		6.425221	
78.80696	3836.251		5.856927	
78.86092	3836.024		5.30984	
78.91486	3835.796		4.784982	
78.96881	3835.561		4.283164	
79.02277	3835.31		3.805053	
79.07671	3835.036		3.351679	
79.13067	3834.737		2.923644	
79.18462	3834.413		2.521812	
79.23856	3834.076		2.146852	
79.29252	3833.745		1.799278	
79.34647	3833.45		1.479861	
79.40042	3833.21		1.188921	
79.45437	3833.03		0.9268219	
79.50832	3832.911		0.6936668	
79.56227	3832.845		0.4892735	
79.61622	3832.817		0.3135337	
79.67017	3832.809		0.1659405	
79.72412	3832.802		0.0458148	
79.77807	3832.785		-0.04754517	
79.83202	3832.75		-0.1151702	
79.88597	3832.692		-0.1579748	
79.93993	3832.608		-0.1770743	
79.99387	3832.494		-0.1737025	
80.04782	3832.349		-0.1490759	
80.10178	3832.178		-0.1046736	
80.15572	3831.988		-0.04201025	
80.20968	3831.779		0.03727819	
80.26363	3831.561		0.1313864	
80.31757	3831.352		0.2385692	
80.37153	3831.165		0.3569676	
80.42548	3831.001		0.4848188	
80.47943	3830.86		0.6205106	
80.53338	3830.743		0.7625474	
80.58733	3830.648		0.9097106	
80.64128	3830.572		1.060944	
80.69523	3830.515		1.215282	
80.74918	3830.473		1.371976	
80.80313	3830.443		1.530281	
80.85708	3830.43		1.689608	
80.91103	3830.442		1.849399	
80.96498	3830.487		2.009059	
81.01894	3830.586		2.168073	
81.07288	3830.761		2.32586	
81.12683	3831.023		2.481865	
81.18079	3831.365		2.63559	
81.23473	3831.765		2.786451	
81.28869	3832.205		2.933988	
81.34264	3832.668		3.07766	
81.39658	3833.143		3.216934	
81.45054	3833.613		3.351258	
81.50449	3834.061		3.479907	
81.55844	3834.471		3.602149	
81.61239	3834.832		3.717101	
81.66634	3835.144		3.823771	
81.72029	3835.416		3.921149	
81.77424	3835.671		4.008028	
81.82819	3835.933		4.08321	
81.88214	3836.23		4.145452	
81.93609	3836.576		4.193455	
81.99004	3836.977		4.226032	
82.04399	3837.428		4.241884	
82.09795	3837.914		4.239751	
82.15189	3838.409		4.218382	
82.20584	3838.882		4.176402	
82.2598	3839.307		4.112547	
82.31374	3839.662		4.025477	
82.3677	3839.932		3.913897	
82.42165	3840.123		3.776744	
82.47559	3840.257		3.612863	
82.52955	3840.361		3.42145	
82.5835	3840.462		3.201756	
82.63745	3840.589		2.953177	
82.6914	3840.76		2.675478	
82.74535	3840.983		2.368316	
82.7993	3841.267		2.031684	
82.85325	3841.605		1.665677	
82.9072	3841.976		1.270409	
82.96115	3842.353		0.8464849	
83.0151	3842.72		0.3942696	
83.06905	3843.072		-0.0854716	
83.123	3843.412		-0.5918579	
83.17696	3843.744		-1.124067	
83.2309	3844.07		-1.680817	
83.28485	3844.387		-2.261155	
83.33881	3844.697		-2.863871	
83.39275	3845.002		-3.487681	
83.44671	3845.308		-4.131607	
83.50066	3845.612		-4.794305	
83.5546	3845.907		-5.475023	
83.60856	3846.183		-6.17291	
83.66251	3846.435		-6.887097	
83.71646	3846.656		-7.61708	
83.77041	3846.832		-8.361959	
83.82436	3846.944		-9.12138	
83.87831	3846.975		-9.894893	
83.93226	3846.91		-10.68191	
83.98621	3846.745		-11.48224	
84.04016	3846.474		-12.29525	
84.09411	3846.089		-13.1208	
84.14806	3845.584		-13.95868	
84.20201	3844.959		-14.80853	
84.25597	3844.22		-15.67049	
84.30991	3843.377		-16.54422	
84.36386	3842.434		-17.42988	
84.41782	3841.395		-18.32748	
84.47176	3840.266		-19.23667	
84.52572	3839.062		-20.15748	
84.57967	3837.797		-21.08932	
84.63361	3836.477		-22.03193	
84.68757	3835.095		-22.98491	
84.74152	3833.647		-23.94737	
84.79547	3832.128		-24.91882	
84.84942	3830.531		-25.8981	
84.90337	3828.853		-26.88438	
84.95732	3827.09		-27.87669	
85.01127	3825.242		-28.87348	
85.06522	3823.317		-29.87366	
85.11917	3821.328		-30.87543	
85.17312	3819.288		-31.87731	
85.22707	3817.208		-32.8778	
85.28102	3815.098		-33.87487	
85.33498	3812.967		-34.86707	
85.38892	3810.822		-35.85243	
85.44287	3808.665		-36.82938	
85.49683	3806.491		-37.79653	
85.55077	3804.297		-38.75217	
85.60473	3802.084		-39.69529	
85.65868	3799.854		-40.62457	
85.71262	3797.606		-41.53911	
85.76658	3795.333		-42.43826	
85.82053	3793.032		-43.321	
85.87448	3790.713		-44.18703	
85.92843	3788.384		-45.03574	
85.98238	3786.055		-45.86692	
86.03633	3783.721		-46.68063	
86.09028	3781.368		-47.47659	
86.14423	3778.967		-48.25523	
86.19818	3776.503		-49.01671	
86.25213	3773.966		-49.76155	
86.30608	3771.349		-50.49054	
86.36003	3768.641		-51.20411	
86.41399	3765.838		-51.90322	
86.46793	3762.941		-52.58849	
86.52188	3759.959		-53.26073	
86.57584	3756.898		-53.92081	
86.62978	3753.772		-54.56923	
86.68374	3750.585		-55.20682	
86.73769	3747.348		-55.834	
86.79163	3744.054		-56.4513	
86.84559	3740.697		-57.05917	
86.89954	3737.269		-57.65765	
86.95349	3733.771		-58.24694	
87.00744	3730.215		-58.82681	
87.06139	3726.621		-59.39705	
87.11534	3722.995		-59.95737	
87.16929	3719.351		-60.50712	
87.22324	3715.697		-61.04584	
87.27719	3712.054		-61.57275	
87.33114	3708.432		-62.08718	
87.38509	3704.841		-62.58845	
87.43904	3701.285		-63.07563	
87.493	3697.766		-63.54807	
87.54694	3694.285		-64.00496	
87.60089	3690.844		-64.44569	
87.65485	3687.433		-64.86976	
87.70879	3684.035		-65.27659	
87.76275	3680.619		-65.66589	
87.8167	3677.17		-66.03732	
87.87064	3673.679		-66.39079	
87.9246	3670.142		-66.72636	
87.97855	3666.568		-67.04418	
88.0325	3662.963		-67.34471	
88.08645	3659.327		-67.62851	
88.1404	3655.654		-67.89632	
88.19435	3651.947		-68.14915	
88.2483	3648.208		-68.38795	
88.30225	3644.437		-68.61396	
88.3562	3640.628		-68.82841	
88.41015	3636.773		-69.03267	
88.4641	3632.86		-69.22813	
88.51805	3628.889		-69.41617	
88.57201	3624.866		-69.59827	
88.62595	3620.8		-69.77584	
88.6799	3616.694		-69.95028	
88.73386	3612.562		-70.12305	
88.7878	3608.413		-70.29546	
88.84176	3604.255		-70.46891	
88.89571	3600.091		-70.64458	
88.94965	3595.929		-70.82359	
89.00361	3591.778		-71.00694	
89.05756	3587.65		-71.1953	
89.1115	3583.553		-71.38925	
89.16546	3579.496		-71.58912	
89.21941	3575.475		-71.79494	
89.27336	3571.49		-72.00665	
89.32731	3567.542		-72.22388	
89.38126	3563.638		-72.44618	
89.43521	3559.776		-72.67297	
89.48916	3555.969		-72.90349	
89.54311	3552.218		-73.13704	
89.59706	3548.537		-73.37273	
89.65101	3544.92		-73.60975	
89.70496	3541.355		-73.84721	
89.75891	3537.821		-74.08418	
89.81287	3534.294		-74.31985	
89.86681	3530.747		-74.55328	
89.92076	3527.172		-74.78374	
89.97472	3523.568		-75.0105	
90.02866	3519.942		-75.23289	
90.08262	3516.284		-75.45045	
90.13657	3512.59		-75.66262	
90.19051	3508.853		-75.86906	
90.24447	3505.074		-76.06943	
90.29842	3501.255		-76.26342	
90.35237	3497.405		-76.45091	
90.40632	3493.514		-76.63174	
90.46027	3489.576		-76.80587	
90.51422	3485.581		-76.97334	
90.56817	3481.527		-77.13409	
90.62212	3477.402		-77.28822	
90.67607	3473.211		-77.4357	
90.73002	3468.953		-77.57664	
90.78397	3464.632		-77.71123	
90.83792	3460.253		-77.83958	
90.89188	3455.821		-77.96199	
90.94582	3451.344		-78.07876	
90.99977	3446.83		-78.19022	
91.05373	3442.291		-78.29678	
91.10767	3437.734		-78.39865	
91.16163	3433.153		-78.4961	
91.21558	3428.548		-78.58923	
91.26952	3423.915		-78.67809	
91.32348	3419.249		-78.76269	
91.37743	3414.534		-78.84277	
91.43138	3409.761		-78.91814	
91.48533	3404.934		-78.98847	
91.53928	3400.067		-79.05347	
91.59323	3395.194		-79.1129	
91.64718	3390.353		-79.16635	
91.70113	3385.576		-79.21352	
91.75508	3380.883		-79.25414	
91.80903	3376.271		-79.28786	
91.86298	3371.73		-79.3145	
91.91693	3367.253		-79.33382	
91.97089	3362.823		-79.34569	
92.02483	3358.429		-79.35007	
92.07878	3354.058		-79.34686	
92.13274	3349.7		-79.33611	
92.18668	3345.346		-79.31783	
92.24064	3340.991		-79.29203	
92.29459	3336.639		-79.25886	
92.34853	3332.308		-79.2184	
92.40249	3328.01		-79.17088	
92.45644	3323.766		-79.10439	
92.51039	3319.581		-79.04642	
92.56434	3315.465		-78.99404	
92.61829	3311.41		-78.94457	
92.67224	3307.411		-78.89606	
92.72619	3303.453		-78.84724	
92.78014	3299.524		-78.79739	
92.83409	3295.605		-78.74615	
92.88804	3291.684		-78.69336	
92.94199	3287.744		-78.63904	
92.99594	3283.786		-78.58328	
93.0499	3279.805		-78.52623	
93.10384	3275.812		-78.46806	
93.15779	3271.816		-78.40896	
93.21175	3267.835		-78.34911	
93.26569	3263.886		-78.28872	
93.31965	3259.981		-78.22797	
93.3736	3256.119		-78.16705	
93.42754	3252.292		-78.10612	
93.4815	3248.464		-78.04536	
93.53545	3244.607		-77.98492	
93.5894	3240.696		-77.92492	
93.64335	3236.721		-77.86552	
93.6973	3232.678		-77.80682	
93.75125	3228.572		-77.74895	
93.8052	3224.4		-77.69203	
93.85915	3220.171		-77.63615	
93.9131	3215.903		-77.58142	
93.96705	3211.616		-77.52793	
94.021	3207.317		-77.47577	
94.07495	3202.907		-77.42503	
94.12891	3198.436		-77.37578	
94.18285	3193.902		-77.32808	
94.2368	3189.324		-77.28199	
94.29076	3184.711		-77.23754	
94.3447	3180.074		-77.19479	
94.39866	3175.416		-77.15376	
94.45261	3170.745		-77.11448	
94.50655	3166.063		-77.07696	
94.56051	3161.373		-77.0412	
94.61446	3156.68		-77.00722	
94.66841	3151.985		-76.97499	
94.72236	3147.288		-76.94453	
94.77631	3142.592		-76.91581	
94.83026	3137.896		-76.88879	
94.88421	3133.201		-76.86347	
94.93816	3128.502		-76.83981	
94.99211	3123.8		-76.81776	
