T[Â°C]	330nm [counts / mm]	S.D.	First derivative	S.D. of first derivative
20.00055	4698.969	55.58567	-61.56414	2.401245
20.05466	4695.392	55.7103	-61.5939	2.390313
20.10877	4691.82	55.82473	-61.62358	2.379207
20.16287	4688.254	55.92858	-61.65317	2.36792
20.21698	4684.692	56.02193	-61.68267	2.356449
20.27109	4681.136	56.10546	-61.71207	2.344793
20.3252	4677.584	56.18121	-61.74137	2.332956
20.3793	4674.036	56.25075	-61.77055	2.320932
20.43341	4670.493	56.31637	-61.79961	2.308727
20.48752	4666.954	56.38064	-61.82854	2.296341
20.54163	4663.419	56.44479	-61.85735	2.283779
20.59574	4659.888	56.51088	-61.886	2.271045
20.64984	4656.361	56.57975	-61.91451	2.258146
20.70395	4652.838	56.6526	-61.94286	2.245086
20.75806	4649.316	56.73007	-61.97105	2.231875
20.81217	4645.796	56.81059	-61.99908	2.21852
20.86627	4642.28	56.88631	-62.02692	2.205031
20.92038	4638.777	56.92666	-62.05459	2.19142
20.97449	4635.434	56.9125	-62.08207	2.177694
21.02859	4632.136	56.87438	-62.10937	2.163873
21.0827	4628.875	56.80534	-62.13647	2.149966
21.13681	4625.633	56.71166	-62.16338	2.135989
21.19092	4622.401	56.60636	-62.19009	2.12196
21.24503	4619.172	56.50491	-62.21661	2.107887
21.29913	4615.938	56.42245	-62.24294	2.093793
21.35324	4612.69	56.36875	-62.26909	2.079682
21.40735	4609.421	56.34832	-62.29507	2.065567
21.46146	4606.128	56.36081	-62.3209	2.051451
21.51556	4602.81	56.40175	-62.34658	2.037338
21.56967	4599.463	56.46623	-62.37214	2.023216
21.62378	4596.086	56.55636	-62.39759	2.009068
21.67789	4592.68	56.67237	-62.42296	1.994873
21.73199	4589.25	56.80601	-62.44828	1.980602
21.7861	4585.799	56.94169	-62.47356	1.966213
21.84021	4582.334	57.06276	-62.49885	1.951662
21.89432	4578.86	57.15603	-62.52417	1.936893
21.94843	4575.386	57.21511	-62.54956	1.921856
22.00253	4571.917	57.23914	-62.57507	1.906476
22.05664	4568.448	57.23108	-62.60075	1.890684
22.11075	4564.974	57.1992	-62.62665	1.874399
22.16486	4561.481	57.14727	-62.65284	1.857513
22.21896	4557.957	57.07588	-62.67941	1.839917
22.27307	4554.404	56.98561	-62.70641	1.821457
22.32718	4550.836	56.88159	-62.73392	1.801937
22.38129	4547.274	56.77771	-62.76202	1.781085
22.43539	4543.734	56.68977	-62.79074	1.75853
22.4895	4540.226	56.63265	-62.82007	1.733765
22.54361	4536.755	56.61166	-62.84993	1.706178
22.59772	4533.331	56.62395	-62.8801	1.67515
22.65182	4529.958	56.65622	-62.89684	1.627886
22.70593	4526.642	56.69193	-62.91108	1.579895
22.76004	4523.377	56.7186	-62.92264	1.531558
22.81415	4520.149	56.72933	-62.93138	1.48325
22.86825	4516.938	56.72812	-62.9372	1.435344
22.92236	4513.728	56.72542	-62.94006	1.388209
22.97647	4510.5	56.73128	-62.93991	1.342205
23.03058	4507.244	56.75862	-62.93677	1.297686
23.08468	4503.951	56.81512	-62.93067	1.254977
23.13879	4500.618	56.89875	-62.9217	1.21438
23.1929	4497.25	57.00095	-62.90996	1.176131
23.24701	4493.854	57.11455	-62.89562	1.140419
23.30112	4490.438	57.23257	-62.87888	1.107346
23.35522	4487.001	57.35114	-62.85994	1.076947
23.40933	4483.542	57.46518	-62.83901	1.049203
23.46344	4480.066	57.56968	-62.8163	1.024035
23.51755	4476.582	57.65645	-62.79198	1.001328
23.57165	4473.1	57.71778	-62.76623	0.9809355
23.62576	4469.622	57.75179	-62.73921	0.9626828
23.67987	4466.146	57.76079	-62.7111	0.9463712
23.73398	4462.666	57.74745	-62.68207	0.9318202
23.78808	4459.172	57.71321	-62.65227	0.9188458
23.84219	4455.658	57.65801	-62.62183	0.9072912
23.8963	4452.125	57.58353	-62.59085	0.8970209
23.95041	4448.584	57.49155	-62.55936	0.8879449
24.00451	4445.05	57.38379	-62.52738	0.8800162
24.05862	4441.54	57.26027	-62.49491	0.8732373
24.11273	4438.064	57.11613	-62.46194	0.867628
24.16684	4434.624	56.94662	-62.42846	0.8632342
24.22095	4431.208	56.75101	-62.39446	0.860089
24.27505	4427.812	56.53098	-62.35995	0.8581833
24.32916	4424.428	56.29077	-62.32491	0.8574606
24.38327	4421.058	56.03539	-62.28936	0.8578396
24.43737	4417.705	55.77624	-62.25331	0.8592311
24.49148	4414.369	55.5252	-62.21679	0.8615535
24.54559	4411.053	55.29364	-62.17981	0.8647506
24.5997	4407.75	55.09138	-62.14238	0.8687856
24.6538	4404.458	54.92952	-62.10448	0.8736593
24.70791	4401.178	54.81644	-62.06614	0.8793907
24.76202	4397.905	54.75535	-62.02732	0.8860148
24.81613	4394.638	54.74116	-61.98805	0.8935453
24.87024	4391.375	54.76417	-61.94834	0.9019807
24.92434	4388.113	54.80648	-61.90823	0.9113173
24.97845	4384.849	54.85286	-61.86777	0.9215379
25.03256	4381.577	54.89258	-61.827	0.9326221
25.08667	4378.293	54.91769	-61.78599	0.9445431
25.14077	4374.991	54.92274	-61.74486	0.9572733
25.19488	4371.669	54.90311	-61.70375	0.9708067
25.24899	4368.33	54.85837	-61.66284	0.985155
25.3031	4364.977	54.79393	-61.62236	1.000365
25.3572	4361.616	54.72376	-61.58252	1.016483
25.41131	4358.25	54.6659	-61.54354	1.033567
25.46542	4354.884	54.63823	-61.50562	1.051656
25.51953	4351.522	54.64807	-61.46894	1.070793
25.57364	4348.17	54.6928	-61.43364	1.091021
25.62774	4344.829	54.76166	-61.39986	1.112391
25.68185	4341.498	54.84037	-61.36769	1.134979
25.73596	4338.173	54.91115	-61.33724	1.158862
25.79007	4334.845	54.95319	-61.30852	1.184103
25.84417	4331.506	54.94948	-61.28148	1.210762
25.89828	4328.154	54.89458	-61.25602	1.23887
25.95239	4324.791	54.79552	-61.23193	1.268433
26.0065	4321.429	54.67051	-61.20899	1.299441
26.0606	4318.08	54.53693	-61.18694	1.331858
26.11471	4314.756	54.40884	-61.16553	1.36561
26.16882	4311.461	54.29695	-61.14449	1.400598
26.22293	4308.196	54.20781	-61.12357	1.436677
26.27703	4304.959	54.14435	-61.10254	1.473656
26.33114	4301.749	54.10745	-61.0812	1.511294
26.38525	4298.556	54.102	-61.05941	1.549302
26.43936	4295.374	54.131	-61.03709	1.587372
26.49346	4292.195	54.19251	-61.0142	1.625168
26.54757	4289.014	54.2779	-60.99068	1.662333
26.60168	4285.83	54.37771	-60.96651	1.698492
26.65579	4282.64	54.48031	-60.94164	1.733262
26.70989	4279.439	54.57325	-60.916	1.766245
26.764	4276.222	54.6438	-60.88958	1.797056
26.81811	4272.983	54.68681	-60.86234	1.825321
26.87222	4269.718	54.6966	-60.83431	1.850711
26.92632	4266.423	54.66811	-60.80556	1.872961
26.98043	4263.102	54.59754	-60.77618	1.891858
27.03454	4259.757	54.48366	-60.74628	1.907246
27.08865	4256.398	54.33125	-60.71596	1.91899
27.14276	4253.036	54.14699	-60.68535	1.926986
27.19686	4249.673	53.93373	-60.65455	1.931175
27.25097	4246.305	53.69176	-60.62363	1.93152
27.30508	4242.923	53.42267	-60.59264	1.928026
27.35919	4239.524	53.13352	-60.56159	1.920743
27.41329	4236.104	52.83775	-60.53045	1.909783
27.4674	4232.67	52.54328	-60.49917	1.895311
27.52151	4229.228	52.25489	-60.46769	1.877536
27.57562	4225.788	51.97698	-60.43592	1.856682
27.62972	4222.362	51.71292	-60.40382	1.83297
27.68383	4218.963	51.46407	-60.37128	1.806608
27.73794	4215.597	51.22656	-60.33826	1.777775
27.79205	4212.263	50.99131	-60.30463	1.746638
27.84616	4208.959	50.74967	-60.2703	1.713342
27.90026	4205.682	50.497	-60.23512	1.678041
27.95437	4202.428	50.23005	-60.19898	1.640893
28.00848	4199.205	49.94802	-60.16177	1.602064
28.06258	4196.015	49.65589	-60.12344	1.561722
28.11669	4192.855	49.36565	-60.08393	1.520021
28.1708	4189.712	49.09337	-60.04317	1.477105
28.22491	4186.57	48.85107	-60.00113	1.433108
28.27901	4183.422	48.64977	-59.95773	1.388128
28.33312	4180.268	48.5028	-59.91295	1.342238
28.38723	4177.114	48.4234	-59.86678	1.295483
28.44134	4173.963	48.41632	-59.81924	1.247903
28.49545	4170.817	48.4755	-59.77037	1.199561
28.54955	4167.671	48.58522	-59.72025	1.15056
28.60366	4164.517	48.7214	-59.669	1.10104
28.65777	4161.349	48.86094	-59.61678	1.051208
28.71188	4158.167	48.98452	-59.56377	1.001336
28.76598	4154.974	49.08531	-59.51017	0.9517941
28.82009	4151.768	49.16668	-59.45626	0.9030496
28.8742	4148.545	49.23708	-59.40231	0.8556814
28.92831	4145.298	49.30595	-59.34865	0.8103665
28.98241	4142.025	49.38165	-59.29559	0.7678439
29.03652	4138.729	49.46769	-59.24346	0.7288494
29.09063	4135.424	49.56942	-59.19253	0.6940503
29.14474	4132.123	49.68773	-59.14307	0.6639679
29.19884	4128.836	49.81858	-59.09528	0.6388991
29.25295	4125.569	49.94916	-59.04932	0.6188742
29.30706	4122.324	50.07106	-59.00529	0.6036286
29.36117	4119.1	50.17973	-58.96321	0.5926355
29.41528	4115.89	50.26972	-58.92308	0.585134
29.46938	4112.689	50.33083	-58.88482	0.5802336
29.52349	4109.496	50.36166	-58.84833	0.5769966
29.5776	4106.31	50.36948	-58.81343	0.5745586
29.63171	4103.136	50.36005	-58.77994	0.5721862
29.68581	4099.98	50.33643	-58.7476	0.5693116
29.73992	4096.844	50.29581	-58.71617	0.5655457
29.79403	4093.728	50.23644	-58.6854	0.5606786
29.84813	4090.63	50.16026	-58.65504	0.5546558
29.90224	4087.542	50.07396	-58.6249	0.5475755
29.95635	4084.463	49.9881	-58.5948	0.539637
30.01046	4081.389	49.91718	-58.56461	0.5311594
30.06457	4078.326	49.87651	-58.53422	0.5225467
30.11867	4075.277	49.87889	-58.50355	0.5142784
30.17278	4072.24	49.92899	-58.47252	0.506892
30.22689	4069.203	50.02061	-58.44104	0.5009601
30.281	4066.154	50.14168	-58.40903	0.4970469
30.3351	4063.081	50.27974	-58.37642	0.4956653
30.38921	4059.979	50.42588	-58.34309	0.4972098
30.44332	4056.845	50.57765	-58.30898	0.5019181
30.49743	4053.681	50.73292	-58.27407	0.5098544
30.55153	4050.485	50.88867	-58.23836	0.52088
30.60564	4047.259	51.0384	-58.20186	0.5346697
30.65975	4044.012	51.16896	-58.16464	0.5507383
30.71386	4040.757	51.26738	-58.12676	0.5685229
30.76797	4037.509	51.32342	-58.08833	0.5874221
30.82207	4034.279	51.3378	-58.04945	0.6068317
30.87618	4031.067	51.31712	-58.0103	0.6261982
30.93029	4027.87	51.2712	-57.97105	0.6450398
30.9844	4024.686	51.20403	-57.93188	0.6629533
31.0385	4021.512	51.11491	-57.89301	0.6796517
31.09261	4018.345	51.00165	-57.85462	0.69494
31.14672	4015.179	50.86793	-57.8169	0.7087198
31.20083	4012.007	50.71439	-57.78004	0.7209721
31.25493	4008.824	50.54016	-57.74417	0.7317545
31.30904	4005.634	50.34698	-57.70943	0.7411909
31.36315	4002.439	50.13607	-57.67587	0.7494252
31.41726	3999.244	49.9011	-57.64351	0.7566147
31.47136	3996.058	49.63583	-57.61227	0.7628717
31.52547	3992.889	49.34191	-57.58207	0.7682644
31.57958	3989.742	49.02915	-57.55277	0.7727965
31.63369	3986.617	48.71714	-57.52424	0.7764307
31.68779	3983.512	48.43125	-57.49633	0.7790602
31.7419	3980.427	48.1954	-57.46888	0.7805521
31.79601	3977.361	48.02519	-57.44173	0.7807565
31.85012	3974.314	47.92306	-57.41471	0.7795263
31.90422	3971.284	47.8802	-57.38764	0.7767565
31.95833	3968.262	47.8841	-57.36037	0.7723916
32.01244	3965.239	47.92456	-57.33274	0.7664085
32.06655	3962.205	47.9912	-57.30463	0.7588313
32.12066	3959.157	48.07076	-57.27598	0.749728
32.17476	3956.094	48.1515	-57.24676	0.7392061
32.22887	3953.016	48.23005	-57.21701	0.7273937
32.28298	3949.925	48.30635	-57.1868	0.7144431
32.33709	3946.825	48.3786	-57.15623	0.7005126
32.39119	3943.726	48.44129	-57.12542	0.6857746
32.4453	3940.631	48.48513	-57.09451	0.6703999
32.49941	3937.545	48.50543	-57.06366	0.6545517
32.55352	3934.472	48.50118	-57.03302	0.6383932
32.60762	3931.415	48.47689	-57.00272	0.6220688
32.66173	3928.376	48.44054	-56.9729	0.6057222
32.71584	3925.352	48.39762	-56.94364	0.5894786
32.76995	3922.337	48.34996	-56.91502	0.5734599
32.82405	3919.323	48.29866	-56.88708	0.5577705
32.87816	3916.302	48.2468	-56.85988	0.5424941
32.93227	3913.271	48.19979	-56.83345	0.5276808
32.98638	3910.225	48.15736	-56.80782	0.5133578
33.04049	3907.166	48.1137	-56.783	0.4995461
33.09459	3904.097	48.06762	-56.75897	0.4862503
33.1487	3901.022	48.02468	-56.7357	0.4735042
33.20281	3897.947	47.98978	-56.71316	0.4613713
33.25692	3894.872	47.961	-56.6913	0.4499611
33.31102	3891.797	47.93543	-56.67006	0.4394093
33.36513	3888.721	47.91543	-56.64938	0.4298562
33.41924	3885.646	47.90808	-56.62916	0.4214444
33.47335	3882.575	47.92148	-56.60932	0.4142975
33.52745	3879.514	47.96012	-56.58978	0.4085088
33.58156	3876.461	48.02122	-56.57045	0.4041258
33.63567	3873.414	48.10318	-56.55128	0.4011506
33.68978	3870.369	48.20375	-56.53216	0.3995475
33.74389	3867.321	48.31974	-56.51299	0.3992339
33.79799	3864.266	48.4457	-56.49361	0.400093
33.8521	3861.203	48.57611	-56.47385	0.4019711
33.90621	3858.134	48.70515	-56.45351	0.4046904
33.96032	3855.063	48.82963	-56.43237	0.4080602
34.01442	3851.991	48.9479	-56.41021	0.4119016
34.06853	3848.92	49.05516	-56.38684	0.4160537
34.12263	3845.851	49.13814	-56.3621	0.4203957
34.17674	3842.783	49.18319	-56.33583	0.4248374
34.23085	3839.715	49.18571	-56.30791	0.4293281
34.28496	3836.64	49.1511	-56.27824	0.4338456
34.33907	3833.561	49.09289	-56.24677	0.4383825
34.39317	3830.48	49.02467	-56.21346	0.4429516
34.44728	3827.399	48.95142	-56.1783	0.4475786
34.50139	3824.321	48.86708	-56.14136	0.4523393
34.5555	3821.245	48.7608	-56.10275	0.4573586
34.6096	3818.171	48.62328	-56.06263	0.4627966
34.66371	3815.095	48.45369	-56.02117	0.4688345
34.71782	3812.012	48.25888	-55.97859	0.475673
34.77193	3808.927	48.04565	-55.93507	0.483512
34.82603	3805.846	47.82056	-55.89077	0.4925241
34.88014	3802.775	47.59523	-55.84583	0.5028468
34.93425	3799.716	47.37982	-55.80033	0.5145396
34.98836	3796.672	47.18106	-55.75436	0.5276079
35.04247	3793.64	47.00148	-55.70795	0.541988
35.09657	3790.616	46.8464	-55.66115	0.5575722
35.15068	3787.598	46.7252	-55.61399	0.5742386
35.20479	3784.584	46.6459	-55.56649	0.5918656
35.2589	3781.575	46.61134	-55.51867	0.6103347
35.313	3778.569	46.61559	-55.47055	0.6295204
35.36711	3775.564	46.6467	-55.42218	0.6492932
35.42122	3772.555	46.69358	-55.3736	0.6695338
35.47533	3769.539	46.74765	-55.3249	0.6901413
35.52943	3766.517	46.8018	-55.27615	0.711041
35.58354	3763.499	46.85204	-55.22746	0.7321843
35.63765	3760.491	46.89716	-55.17893	0.7535382
35.69176	3757.504	46.93567	-55.13065	0.77509
35.74586	3754.541	46.96386	-55.08268	0.7968214
35.79997	3751.599	46.98314	-55.03508	0.8186969
35.85408	3748.672	47.00292	-54.98792	0.8406657
35.90819	3745.751	47.03527	-54.9412	0.8626661
35.9623	3742.83	47.0878	-54.89497	0.8846214
36.0164	3739.905	47.16299	-54.84924	0.9064204
36.07051	3736.977	47.2574	-54.80401	0.9279047
36.12462	3734.049	47.36403	-54.75925	0.9488785
36.17873	3731.121	47.47258	-54.7149	0.9691039
36.23283	3728.195	47.56866	-54.67088	0.9883273
36.28694	3725.265	47.64093	-54.62711	1.006275
36.34105	3722.33	47.68499	-54.58353	1.022673
36.39516	3719.387	47.7025	-54.5401	1.037275
36.44926	3716.444	47.69781	-54.49687	1.049873
36.50337	3713.509	47.67885	-54.45389	1.060322
36.55748	3710.594	47.64961	-54.4113	1.068565
36.61159	3707.704	47.61401	-54.36927	1.074647
36.6657	3704.838	47.57929	-54.32796	1.078722
36.7198	3701.991	47.54976	-54.28754	1.081026
36.77391	3699.158	47.52744	-54.24813	1.081841
36.82802	3696.33	47.51328	-54.20982	1.081486
36.88213	3693.5	47.51186	-54.17263	1.080276
36.93623	3690.659	47.5281	-54.13659	1.078514
36.99034	3687.798	47.56518	-54.10172	1.076439
37.04445	3684.907	47.62265	-54.06801	1.074249
37.09856	3681.978	47.69724	-54.03546	1.072093
37.15266	3679.009	47.78167	-54.00402	1.070052
37.20677	3676.007	47.86737	-53.97362	1.068158
37.26088	3672.983	47.94325	-53.94416	1.066404
37.31499	3669.957	48.00033	-53.91549	1.064753
37.36909	3666.949	48.03212	-53.88749	1.063165
37.4232	3663.972	48.03525	-53.85999	1.06158
37.47731	3661.03	48.014	-53.83283	1.059944
37.53142	3658.117	47.97711	-53.80585	1.058213
37.58552	3655.219	47.93402	-53.77886	1.056354
37.63963	3652.324	47.89039	-53.75171	1.054358
37.69374	3649.425	47.84277	-53.72422	1.052238
37.74784	3646.516	47.77935	-53.69624	1.050047
37.80195	3643.596	47.68884	-53.66763	1.047842
37.85606	3640.664	47.56842	-53.63827	1.045685
37.91017	3637.721	47.42528	-53.60805	1.043653
37.96428	3634.769	47.27007	-53.57688	1.041824
38.01838	3631.811	47.1094	-53.54467	1.04028
38.07249	3628.851	46.94933	-53.51136	1.039079
38.1266	3625.892	46.79427	-53.4769	1.038247
38.18071	3622.942	46.64406	-53.44126	1.037785
38.23481	3620.014	46.49521	-53.40444	1.037677
38.28892	3617.117	46.3444	-53.36649	1.037899
38.34303	3614.256	46.19072	-53.32751	1.038444
38.39714	3611.428	46.03263	-53.28762	1.03932
38.45124	3608.625	45.8679	-53.247	1.04056
38.50535	3605.835	45.68777	-53.20584	1.042181
38.55946	3603.046	45.48748	-53.16433	1.044184
38.61357	3600.247	45.27382	-53.12268	1.046536
38.66768	3597.43	45.05753	-53.08109	1.049177
38.72178	3594.586	44.85001	-53.03973	1.052019
38.77589	3591.71	44.65891	-52.99878	1.054964
38.83	3588.802	44.49166	-52.95838	1.057899
38.88411	3585.869	44.35178	-52.91868	1.06069
38.93821	3582.917	44.24166	-52.87983	1.063184
38.99232	3579.956	44.16455	-52.84199	1.065208
39.04643	3576.995	44.12813	-52.80531	1.066576
39.10054	3574.041	44.13981	-52.76995	1.067097
39.15464	3571.099	44.20497	-52.73604	1.066589
39.20875	3568.173	44.3215	-52.7037	1.064893
39.26286	3565.264	44.47853	-52.673	1.061914
39.31697	3562.374	44.65818	-52.644	1.057612
39.37107	3559.507	44.83581	-52.61668	1.052024
39.42518	3556.668	44.99353	-52.59102	1.045268
39.47929	3553.858	45.12169	-52.56696	1.037556
39.5334	3551.069	45.21851	-52.54436	1.029179
39.58751	3548.293	45.28349	-52.52305	1.020493
39.64161	3545.521	45.3204	-52.50285	1.011915
39.69572	3542.747	45.33656	-52.48352	1.003902
39.74983	3539.966	45.33675	-52.46485	0.9969332
39.80394	3537.178	45.32219	-52.44659	0.9914752
39.85804	3534.388	45.29101	-52.42854	0.9879346
39.91215	3531.602	45.24295	-52.41049	0.9866534
39.96626	3528.83	45.18054	-52.39226	0.9878721
40.02037	3526.075	45.10827	-52.37368	0.9917275
40.07447	3523.342	45.02958	-52.35463	0.9982379
40.12858	3520.63	44.94379	-52.335	1.007297
40.18269	3517.934	44.84684	-52.3147	1.018694
40.2368	3515.245	44.73206	-52.29366	1.032117
40.2909	3512.554	44.60082	-52.27187	1.047185
40.34501	3509.856	44.46041	-52.24934	1.063469
40.39912	3507.146	44.32424	-52.22612	1.080516
40.45323	3504.418	44.19934	-52.20223	1.097866
40.50734	3501.664	44.08482	-52.17772	1.115027
40.56144	3498.879	43.98268	-52.15262	1.131503
40.61555	3496.064	43.89676	-52.12697	1.146812
40.66966	3493.223	43.82936	-52.10084	1.160522
40.72377	3490.36	43.78264	-52.07431	1.172263
40.77787	3487.481	43.75715	-52.04747	1.18174
40.83198	3484.587	43.74857	-52.02044	1.188729
40.88609	3481.68	43.74973	-51.99331	1.193057
40.9402	3478.764	43.75628	-51.96617	1.19462
40.9943	3475.848	43.76533	-51.9391	1.193342
41.04841	3472.934	43.77766	-51.91218	1.189184
41.10252	3470.023	43.79398	-51.88548	1.182141
41.15662	3467.114	43.81369	-51.85903	1.172235
41.21073	3464.206	43.83595	-51.83285	1.159522
41.26484	3461.296	43.85534	-51.8069	1.144088
41.31895	3458.387	43.86037	-51.7811	1.126043
41.37305	3455.485	43.83844	-51.75529	1.105545
41.42716	3452.595	43.78122	-51.72931	1.08281
41.48127	3449.719	43.68724	-51.70293	1.058093
41.53538	3446.858	43.55468	-51.67591	1.031692
41.58949	3444.009	43.38239	-51.64799	1.003932
41.64359	3441.169	43.17602	-51.6189	0.9751722
41.6977	3438.337	42.94685	-51.58839	0.9457721
41.75181	3435.513	42.70822	-51.55626	0.9160936
41.80592	3432.7	42.47221	-51.52231	0.8864744
41.86002	3429.901	42.24864	-51.48643	0.8572341
41.91413	3427.116	42.04494	-51.44854	0.8286508
41.96824	3424.341	41.8659	-51.40863	0.8009567
42.02235	3421.571	41.7142	-51.36672	0.7743505
42.07645	3418.806	41.5915	-51.32286	0.748971
42.13056	3416.05	41.50037	-51.2771	0.7249249
42.18467	3413.303	41.43718	-51.22954	0.7022657
42.23878	3410.568	41.39536	-51.18027	0.6810109
42.29288	3407.844	41.36443	-51.12946	0.6611562
42.34699	3405.127	41.33632	-51.07729	0.6426943
42.4011	3402.416	41.30782	-51.02396	0.6256129
42.45521	3399.704	41.2791	-50.96972	0.6099042
42.50932	3396.984	41.2524	-50.91481	0.5955678
42.56342	3394.25	41.23409	-50.85952	0.5826216
42.61753	3391.5	41.23248	-50.80413	0.5710883
42.67164	3388.739	41.25466	-50.74898	0.5610092
42.72575	3385.979	41.30511	-50.6944	0.552431
42.77985	3383.228	41.3825	-50.64073	0.5454105
42.83396	3380.486	41.47654	-50.58833	0.5399913
42.88807	3377.747	41.57542	-50.5375	0.5362099
42.94218	3375.013	41.67039	-50.48853	0.5340609
42.99628	3372.287	41.75797	-50.44167	0.5335165
43.05039	3369.571	41.84158	-50.39712	0.5345046
43.1045	3366.865	41.92548	-50.35505	0.5369223
43.15861	3364.166	42.01119	-50.3156	0.5406362
43.21272	3361.464	42.09689	-50.27886	0.5454867
43.26682	3358.751	42.17973	-50.24485	0.5512915
43.32093	3356.028	42.25665	-50.21353	0.5578587
43.37504	3353.3	42.32529	-50.18477	0.5650018
43.42915	3350.574	42.38237	-50.1584	0.5725552
43.48325	3347.863	42.42676	-50.13419	0.5803997
43.53736	3345.17	42.45845	-50.11192	0.5884624
43.59147	3342.498	42.47681	-50.09135	0.5967259
43.64558	3339.844	42.48275	-50.07228	0.6051887
43.69968	3337.202	42.47592	-50.05447	0.6138614
43.75379	3334.569	42.4551	-50.03773	0.6227623
43.8079	3331.947	42.425	-50.02188	0.6319349
43.86201	3329.342	42.39035	-50.00673	0.6414701
43.91611	3326.754	42.35238	-49.99214	0.6514746
43.97022	3324.181	42.30918	-49.97797	0.6620837
44.02433	3321.614	42.2622	-49.96411	0.673416
44.07844	3319.04	42.21599	-49.95041	0.6855514
44.13255	3316.449	42.17635	-49.93672	0.6985174
44.18665	3313.836	42.14829	-49.92291	0.7122634
44.24076	3311.199	42.13206	-49.90883	0.7266703
44.29487	3308.54	42.12112	-49.89435	0.7415236
44.34898	3305.862	42.10815	-49.87937	0.756547
44.40308	3303.173	42.08713	-49.86382	0.7714009
44.45719	3300.475	42.05761	-49.84766	0.7857181
44.5113	3297.767	42.02153	-49.83085	0.7991186
44.56541	3295.047	41.9858	-49.8134	0.8112447
44.61951	3292.312	41.95745	-49.7953	0.82176
44.67362	3289.565	41.94312	-49.77659	0.830365
44.72773	3286.809	41.94865	-49.75727	0.8368044
44.78183	3284.046	41.97482	-49.73737	0.8408706
44.83594	3281.273	42.01508	-49.7169	0.8424151
44.89005	3278.484	42.05991	-49.69587	0.8413627
44.94416	3275.676	42.09543	-49.67427	0.8376945
44.99826	3272.854	42.11002	-49.65206	0.8314644
45.05237	3270.023	42.09636	-49.6292	0.82276
45.10648	3267.195	42.05248	-49.60562	0.8117098
45.16059	3264.377	41.97832	-49.58125	0.7984625
45.21469	3261.573	41.87766	-49.556	0.7831781
45.2688	3258.784	41.75721	-49.52977	0.7660177
45.32291	3256.011	41.62655	-49.50242	0.7471189
45.37702	3253.259	41.49253	-49.47383	0.7266109
45.43113	3250.532	41.35646	-49.44382	0.7046394
45.48523	3247.833	41.22106	-49.41228	0.6813651
45.53934	3245.162	41.08921	-49.37907	0.6569636
45.59345	3242.52	40.96453	-49.34411	0.6316425
45.64756	3239.897	40.853	-49.30731	0.6056275
45.70166	3237.28	40.75784	-49.26859	0.5791602
45.75577	3234.655	40.68122	-49.22786	0.5524911
45.80988	3232.019	40.62223	-49.18505	0.5258712
45.86399	3229.376	40.57549	-49.14011	0.4995613
45.91809	3226.729	40.53217	-49.09299	0.4738222
45.9722	3224.081	40.48304	-49.0437	0.4489189
46.02631	3221.429	40.42137	-48.99222	0.4250951
46.08042	3218.772	40.34655	-48.93858	0.4025748
46.13453	3216.11	40.26583	-48.88278	0.3815477
46.18863	3213.442	40.19073	-48.82487	0.362152
46.24274	3210.769	40.1316	-48.76488	0.3444763
46.29685	3208.096	40.09691	-48.7029	0.3285455
46.35096	3205.429	40.08848	-48.63905	0.3143126
46.40506	3202.774	40.10561	-48.57349	0.3016955
46.45917	3200.131	40.14403	-48.50642	0.2905951
46.51328	3197.499	40.19619	-48.43805	0.2809171
46.56739	3194.873	40.25148	-48.36858	0.272597
46.62149	3192.253	40.30019	-48.29825	0.2656381
46.6756	3189.641	40.33549	-48.22729	0.2601115
46.72971	3187.042	40.3547	-48.15593	0.2561386
46.78382	3184.46	40.35601	-48.08445	0.2538759
46.83792	3181.894	40.34253	-48.01312	0.2534945
46.89203	3179.341	40.32247	-47.94221	0.2551942
46.94614	3176.795	40.30645	-47.87199	0.2591766
47.00025	3174.252	40.30005	-47.8027	0.2656446
47.05436	3171.709	40.30676	-47.73455	0.2747764
47.10846	3169.164	40.32765	-47.66772	0.2867161
47.16257	3166.619	40.36354	-47.60238	0.301559
47.21668	3164.077	40.41367	-47.53867	0.3193367
47.27079	3161.536	40.47629	-47.47675	0.3400052
47.32489	3158.996	40.55204	-47.41673	0.3634458
47.379	3156.455	40.64053	-47.35875	0.3894472
47.43311	3153.911	40.73895	-47.3029	0.4177161
47.48722	3151.367	40.84132	-47.24927	0.4478975
47.54132	3148.832	40.93793	-47.19794	0.4795918
47.59543	3146.311	41.02046	-47.14898	0.5123796
47.64954	3143.801	41.08541	-47.10244	0.545828
47.70365	3141.3	41.13116	-47.05836	0.579505
47.75776	3138.798	41.16054	-47.01679	0.6129812
47.81186	3136.292	41.17918	-46.97773	0.6458514
47.86597	3133.777	41.19661	-46.94119	0.6777322
47.92008	3131.252	41.22148	-46.9072	0.7082751
47.97419	3128.717	41.25513	-46.87577	0.7371725
48.02829	3126.174	41.29392	-46.84689	0.7641737
48.0824	3123.624	41.33199	-46.82057	0.7891088
48.13651	3121.07	41.36012	-46.79679	0.8118763
48.19061	3118.514	41.36684	-46.77552	0.8324385
48.24472	3115.96	41.34477	-46.75671	0.8508162
48.29883	3113.415	41.28921	-46.74028	0.8670569
48.35294	3110.884	41.20221	-46.72614	0.8812469
48.40704	3108.371	41.09146	-46.71418	0.8934971
48.46115	3105.878	40.96432	-46.70427	0.9039363
48.51526	3103.404	40.82843	-46.69622	0.9127225
48.56937	3100.945	40.68949	-46.6898	0.9200447
48.62347	3098.494	40.55258	-46.68479	0.9261069
48.67758	3096.043	40.42112	-46.68092	0.9311458
48.73169	3093.587	40.29512	-46.67796	0.9354014
48.7858	3091.122	40.17028	-46.6757	0.9391214
48.8399	3088.645	40.04298	-46.67396	0.9425405
48.89401	3086.156	39.9118	-46.67257	0.945872
48.94812	3083.658	39.77239	-46.67135	0.9492864
49.00223	3081.153	39.61769	-46.67016	0.9529092
49.05634	3078.642	39.44445	-46.66884	0.9568118
49.11044	3076.129	39.25261	-46.66725	0.9609949
49.16455	3073.618	39.04063	-46.66526	0.9654002
49.21866	3071.113	38.80971	-46.66273	0.9699128
49.27277	3068.615	38.565	-46.65955	0.9743678
49.32687	3066.122	38.31647	-46.65561	0.978545
49.38098	3063.629	38.07278	-46.65077	0.9821744
49.43509	3061.135	37.84025	-46.64491	0.9849572
49.4892	3058.638	37.62975	-46.63786	0.9865711
49.5433	3056.133	37.45329	-46.62949	0.9866759
49.59741	3053.617	37.319	-46.61964	0.984929
49.65152	3051.088	37.22761	-46.60818	0.9809957
49.70563	3048.543	37.17639	-46.59503	0.9745656
49.75974	3045.985	37.15663	-46.58008	0.9653671
49.81384	3043.413	37.16067	-46.56328	0.9531594
49.86795	3040.829	37.18284	-46.5446	0.9377457
49.92206	3038.234	37.22285	-46.52404	0.9189686
49.97617	3035.635	37.27974	-46.50164	0.8967291
50.03027	3033.04	37.35082	-46.47748	0.8709871
50.08438	3030.454	37.43306	-46.45169	0.8417785
50.13849	3027.873	37.52599	-46.42444	0.8092057
50.1926	3025.297	37.62753	-46.39589	0.7734492
50.2467	3022.723	37.73382	-46.36621	0.7347541
50.30081	3020.153	37.84134	-46.33556	0.693419
50.35492	3017.588	37.94806	-46.30407	0.6498016
50.40903	3015.026	38.05199	-46.27184	0.6043122
50.46313	3012.467	38.15405	-46.23893	0.5574124
50.51724	3009.91	38.25555	-46.20537	0.5095807
50.57135	3007.35	38.35157	-46.17118	0.4613256
50.62546	3004.785	38.43371	-46.13635	0.4131675
50.67957	3002.212	38.49562	-46.10089	0.3656386
50.73367	2999.638	38.53119	-46.06485	0.3192784
50.78778	2997.07	38.53917	-46.02825	0.274625
50.84189	2994.516	38.52304	-45.99115	0.2322134
50.896	2991.981	38.48471	-45.95361	0.1925617
50.9501	2989.469	38.42135	-45.9157	0.1561599
51.00421	2986.977	38.33465	-45.87752	0.1234415
51.05832	2984.507	38.22951	-45.83915	0.09478146
51.11243	2982.057	38.10692	-45.80068	0.07052504
51.16653	2979.623	37.96909	-45.76221	0.05106919
51.22064	2977.198	37.82217	-45.72381	0.03699452
51.27475	2974.774	37.67688	-45.68555	0.0291707
51.32886	2972.344	37.54348	-45.64749	0.02797643
51.38297	2969.905	37.42828	-45.60964	0.03211585
51.43707	2967.457	37.33575	-45.57199	0.04001788
51.49118	2965.004	37.27046	-45.5345	0.05116145
51.54529	2962.547	37.23716	-45.4971	0.06558131
51.5994	2960.091	37.23895	-45.45975	0.08328594
51.6535	2957.644	37.27737	-45.42234	0.1041349
51.70761	2955.214	37.3451	-45.38478	0.1278646
51.76171	2952.808	37.43032	-45.34696	0.1541473
51.81582	2950.427	37.5196	-45.30876	0.1826234
51.86993	2948.065	37.60582	-45.27005	0.21292
51.92404	2945.712	37.68933	-45.23071	0.2446563
51.97815	2943.365	37.77201	-45.19066	0.2774485
52.03225	2941.019	37.85331	-45.14983	0.310901
52.08636	2938.671	37.93549	-45.10818	0.3446271
52.14047	2936.316	38.01891	-45.0657	0.3782588
52.19458	2933.95	38.10149	-45.02242	0.4114662
52.24868	2931.572	38.18146	-44.97836	0.443947
52.30279	2929.182	38.25623	-44.93356	0.4754425
52.3569	2926.783	38.32079	-44.88808	0.5057333
52.41101	2924.379	38.37386	-44.84199	0.5346342
52.46511	2921.976	38.42054	-44.79535	0.5619856
52.51922	2919.583	38.4641	-44.74828	0.5876383
52.57333	2917.2	38.50213	-44.70093	0.6114609
52.62744	2914.825	38.5304	-44.65345	0.6333293
52.68155	2912.452	38.53838	-44.60606	0.6531744
52.73565	2910.074	38.51899	-44.55893	0.6709787
52.78976	2907.686	38.4715	-44.51231	0.6868063
52.84387	2905.286	38.39792	-44.46642	0.7008121
52.89798	2902.87	38.30058	-44.42154	0.7132198
52.95208	2900.436	38.18363	-44.37792	0.7243184
53.00619	2897.982	38.05471	-44.33581	0.7344215
53.0603	2895.513	37.92372	-44.29546	0.7438766
53.11441	2893.031	37.79876	-44.25704	0.7530293
53.16851	2890.535	37.6852	-44.22073	0.7622037
53.22262	2888.027	37.58254	-44.18663	0.7716841
53.27673	2885.508	37.48565	-44.1548	0.7817299
53.33084	2882.982	37.38778	-44.12526	0.7925547
53.38494	2880.454	37.28291	-44.09798	0.8043248
53.43905	2877.93	37.16653	-44.0729	0.8171394
53.49316	2875.416	37.03687	-44.04992	0.8310065
53.54727	2872.916	36.89943	-44.0289	0.8458546
53.60138	2870.434	36.76285	-44.00966	0.8615624
53.65548	2867.971	36.63335	-43.99201	0.8779699
53.70959	2865.53	36.51419	-43.97569	0.8948991
53.7637	2863.114	36.40903	-43.9604	0.9121783
53.81781	2860.721	36.31775	-43.9458	0.9296331
53.87191	2858.351	36.23551	-43.93153	0.947102
53.92602	2856.004	36.16004	-43.91722	0.9644337
53.98013	2853.678	36.08824	-43.90247	0.9814734
54.03424	2851.37	36.01979	-43.88691	0.9980971
54.08834	2849.07	35.95493	-43.87016	1.014192
54.14245	2846.774	35.89036	-43.85183	1.029689
54.19656	2844.479	35.82187	-43.83155	1.044546
54.25067	2842.186	35.74563	-43.80899	1.058724
54.30478	2839.896	35.65849	-43.78384	1.072179
54.35888	2837.612	35.55843	-43.75584	1.084861
54.41299	2835.336	35.45086	-43.7248	1.096701
54.4671	2833.07	35.34226	-43.69059	1.107608
54.52121	2830.817	35.2417	-43.65314	1.117481
54.57531	2828.575	35.16073	-43.6125	1.126176
54.62942	2826.346	35.10865	-43.56876	1.133554
54.68353	2824.123	35.08744	-43.52206	1.139472
54.73764	2821.9	35.09296	-43.47266	1.143819
54.79174	2819.668	35.12069	-43.42085	1.146502
54.84585	2817.422	35.16724	-43.36703	1.147466
54.89996	2815.158	35.22626	-43.31166	1.146685
54.95407	2812.875	35.29132	-43.25523	1.144168
55.00817	2810.575	35.35766	-43.19825	1.139935
55.06228	2808.257	35.4229	-43.14123	1.13402
55.11639	2805.921	35.48708	-43.08466	1.126454
55.17049	2803.568	35.54976	-43.02898	1.117255
55.2246	2801.195	35.60815	-42.97462	1.106439
55.27871	2798.802	35.6577	-42.92198	1.094015
55.33282	2796.389	35.69172	-42.87143	1.079987
55.38692	2793.955	35.70204	-42.82332	1.064343
55.44103	2791.5	35.68539	-42.77797	1.04705
55.49514	2789.029	35.64536	-42.7356	1.028072
55.54925	2786.545	35.59032	-42.69643	1.00737
55.60336	2784.057	35.52648	-42.66055	0.9849581
55.65746	2781.573	35.45661	-42.62801	0.9608875
55.71157	2779.1	35.38604	-42.59873	0.9352645
55.76568	2776.642	35.3199	-42.57255	0.9082493
55.81979	2774.203	35.25486	-42.54923	0.8800499
55.87389	2771.789	35.18388	-42.52847	0.8509248
55.928	2769.401	35.10072	-42.50993	0.8211856
55.98211	2767.042	35.00025	-42.49318	0.7911653
56.03622	2764.711	34.88227	-42.47779	0.7612278
56.09032	2762.403	34.74722	-42.46326	0.7317684
56.14443	2760.114	34.59393	-42.4491	0.7031713
56.19854	2757.837	34.41941	-42.43481	0.6758027
56.25265	2755.572	34.22507	-42.41989	0.6499628
56.30676	2753.322	34.01095	-42.40385	0.6258636
56.36086	2751.091	33.78341	-42.38621	0.6036091
56.41497	2748.881	33.55016	-42.36655	0.5831729
56.46908	2746.691	33.32296	-42.34448	0.5643868
56.52319	2744.521	33.11789	-42.31965	0.5469483
56.57729	2742.372	32.95221	-42.29177	0.5304439
56.6314	2740.242	32.83865	-42.2606	0.5143908
56.68551	2738.129	32.77523	-42.22595	0.4982711
56.73962	2736.028	32.7547	-42.18771	0.4815749
56.79372	2733.933	32.76986	-42.14584	0.4638602
56.84783	2731.833	32.80873	-42.10039	0.4447632
56.90194	2729.719	32.85718	-42.05146	0.424031
56.95605	2727.579	32.90091	-41.99921	0.4015059
57.01015	2725.402	32.92861	-41.94389	0.3771217
57.06426	2723.183	32.93374	-41.88575	0.3508827
57.11837	2720.924	32.9179	-41.82508	0.3228477
57.17248	2718.632	32.88717	-41.76224	0.2931244
57.22659	2716.319	32.85167	-41.6976	0.2618549
57.28069	2713.993	32.82227	-41.63156	0.2292128
57.3348	2711.658	32.80801	-41.56452	0.195409
57.38891	2709.317	32.81323	-41.49691	0.160713
57.44302	2706.973	32.83984	-41.42913	0.1254724
57.49712	2704.63	32.88887	-41.36158	0.09013681
57.55123	2702.292	32.96069	-41.29464	0.05539751
57.60534	2699.965	33.05259	-41.22861	0.02369612
57.65945	2697.652	33.1623	-41.16377	0.02171322
57.71355	2695.351	33.28893	-41.10034	0.05058103
57.76766	2693.057	33.42806	-41.03849	0.08058339
57.82177	2690.762	33.57173	-40.97836	0.1090259
57.87588	2688.458	33.71167	-40.92003	0.1353308
57.92999	2686.145	33.8409	-40.86354	0.1592226
57.98409	2683.821	33.95496	-40.80885	0.1805485
58.0382	2681.492	34.05386	-40.75591	0.1992569
58.09231	2679.161	34.14137	-40.70463	0.2153758
58.14642	2676.838	34.21695	-40.65493	0.2290027
58.20052	2674.53	34.28214	-40.60669	0.2403112
58.25463	2672.245	34.34138	-40.5598	0.2495781
58.30874	2669.99	34.39957	-40.51409	0.2571834
58.36285	2667.768	34.45824	-40.46944	0.2636455
58.41695	2665.579	34.51761	-40.4257	0.2695886
58.47106	2663.424	34.58136	-40.38272	0.2757174
58.52517	2661.302	34.65538	-40.34035	0.2827787
58.57928	2659.207	34.74556	-40.29841	0.29148
58.63338	2657.125	34.85027	-40.25673	0.3024268
58.68749	2655.048	34.95933	-40.21516	0.316043
58.7416	2652.966	35.06054	-40.17354	0.3325283
58.7957	2650.877	35.14244	-40.13175	0.3518414
58.84981	2648.782	35.1959	-40.08969	0.373745
58.90392	2646.683	35.21656	-40.04728	0.3978612
58.95803	2644.577	35.2031	-40.00448	0.4237129
59.01213	2642.464	35.1563	-39.96124	0.4507907
59.06624	2640.344	35.08027	-39.91759	0.4785771
59.12035	2638.219	34.9797	-39.87355	0.5065829
59.17446	2636.096	34.86048	-39.82917	0.5343556
59.22857	2633.98	34.72693	-39.78452	0.5614986
59.28267	2631.877	34.58333	-39.7397	0.5876582
59.33678	2629.792	34.4327	-39.69481	0.6125546
59.39089	2627.722	34.27871	-39.64996	0.6359867
59.445	2625.661	34.12774	-39.60528	0.657841
59.4991	2623.599	33.99097	-39.56086	0.6780753
59.55321	2621.527	33.87854	-39.51681	0.6967251
59.60732	2619.44	33.79572	-39.47321	0.7138833
59.66143	2617.338	33.74277	-39.43014	0.7296847
59.71553	2615.224	33.71507	-39.3877	0.7442659
59.76964	2613.106	33.70235	-39.34597	0.7577434
59.82375	2610.994	33.69143	-39.305	0.7701892
59.87786	2608.893	33.67097	-39.26483	0.78163
59.93196	2606.81	33.62918	-39.22541	0.7920564
59.98607	2604.744	33.56019	-39.18673	0.8014213
60.04018	2602.693	33.46331	-39.14867	0.8096646
60.09429	2600.648	33.34002	-39.11115	0.816718
60.1484	2598.605	33.19074	-39.07405	0.8225165
60.2025	2596.556	33.01928	-39.03724	0.826992
60.25661	2594.494	32.83194	-39.00055	0.8300809
60.31072	2592.412	32.63923	-38.96382	0.8317028
60.36483	2590.302	32.44915	-38.92683	0.8317627
60.41893	2588.164	32.26673	-38.88938	0.8301418
60.47304	2586.002	32.09674	-38.85122	0.826731
60.52715	2583.822	31.94594	-38.8121	0.8214327
60.58126	2581.631	31.81943	-38.77177	0.8141633
60.63536	2579.433	31.7192	-38.72998	0.8048614
60.68947	2577.23	31.64191	-38.68649	0.7934647
60.74358	2575.026	31.58239	-38.64106	0.7799296
60.79769	2572.825	31.53085	-38.59347	0.7642442
60.8518	2570.631	31.47912	-38.54352	0.7464427
60.9059	2568.445	31.42402	-38.491	0.7265992
60.96001	2566.266	31.36733	-38.43575	0.7048472
61.01412	2564.096	31.31295	-38.37759	0.6813581
61.06823	2561.933	31.26467	-38.31638	0.6563688
61.12233	2559.777	31.2286	-38.25198	0.6301515
61.17644	2557.625	31.216	-38.18428	0.6029875
61.23055	2555.478	31.24083	-38.11315	0.5751626
61.28466	2553.33	31.31502	-38.03849	0.5469553
61.33876	2551.186	31.43817	-37.96018	0.5186492
61.39287	2549.051	31.59986	-37.87815	0.4905421
61.44698	2546.935	31.78496	-37.7923	0.4629571
61.50109	2544.843	31.97741	-37.70254	0.4362265
61.55519	2542.782	32.16214	-37.60878	0.4107273
61.6093	2540.752	32.32668	-37.51098	0.3868487
61.66341	2538.749	32.46357	-37.40909	0.3650064
61.71752	2536.767	32.56833	-37.3031	0.3456278
61.77163	2534.799	32.6398	-37.19301	0.3291355
61.82573	2532.832	32.68136	-37.07881	0.3159279
61.87984	2530.858	32.69372	-36.96051	0.3063232
61.93395	2528.868	32.67628	-36.8381	0.3005455
61.98806	2526.863	32.62934	-36.7116	0.2986794
62.04216	2524.843	32.55634	-36.58103	0.3006566
62.09627	2522.814	32.46432	-36.44642	0.3062464
62.15038	2520.783	32.36199	-36.3078	0.3150742
62.20448	2518.754	32.25571	-36.1652	0.3266685
62.25859	2516.729	32.15191	-36.01861	0.3405297
62.3127	2514.708	32.05859	-35.86802	0.3561638
62.36681	2512.696	31.98157	-35.71334	0.3731312
62.42091	2510.698	31.9234	-35.55448	0.3910451
62.47502	2508.721	31.88728	-35.39125	0.4095908
62.52913	2506.772	31.87321	-35.22344	0.4284905
62.58324	2504.854	31.87757	-35.05077	0.4475034
62.63734	2502.966	31.89529	-34.87291	0.4663921
62.69145	2501.107	31.92005	-34.68947	0.4849313
62.74556	2499.269	31.94434	-34.50002	0.5028794
62.79967	2497.447	31.95957	-34.30406	0.5199671
62.85378	2495.634	31.96146	-34.10106	0.5359091
62.90788	2493.822	31.95524	-33.89044	0.5503672
62.96199	2492.006	31.94736	-33.67163	0.562969
63.0161	2490.185	31.94172	-33.44403	0.5733103
63.07021	2488.36	31.93852	-33.20704	0.5809756
63.12431	2486.536	31.9374	-32.96003	0.5855615
63.17842	2484.722	31.9374	-32.70237	0.5867063
63.23253	2482.927	31.94029	-32.43337	0.5840999
63.28664	2481.155	31.9498	-32.15236	0.577507
63.34074	2479.411	31.96786	-31.85863	0.5667668
63.39485	2477.692	31.99522	-31.5515	0.5517933
63.44896	2475.992	32.03391	-31.23029	0.5325947
63.50307	2474.301	32.08382	-30.8943	0.5092863
63.55717	2472.608	32.1406	-30.54287	0.4821056
63.61128	2470.908	32.19613	-30.17536	0.4514177
63.66539	2469.198	32.24046	-29.79112	0.417722
63.7195	2467.481	32.26831	-29.38952	0.3816789
63.77361	2465.762	32.27944	-28.96994	0.3441627
63.82771	2464.044	32.27689	-28.53174	0.3063597
63.88182	2462.327	32.26197	-28.07432	0.2699177
63.93593	2460.613	32.235	-27.59712	0.2371669
63.99004	2458.904	32.196	-27.09958	0.2113232
64.04414	2457.205	32.1451	-26.58121	0.196221
64.09825	2455.523	32.0852	-26.04153	0.1949509
64.15236	2453.864	32.02113	-25.48008	0.2078291
64.20647	2452.235	31.95863	-24.89637	0.2322395
64.26057	2450.639	31.89648	-24.28993	0.2645431
64.31468	2449.077	31.83072	-23.66023	0.3016665
64.36879	2447.549	31.76233	-23.00671	0.3415021
64.4229	2446.049	31.69345	-22.32873	0.3827398
64.47701	2444.571	31.62599	-21.62563	0.4246316
64.53111	2443.107	31.5645	-20.89659	0.4667574
64.58522	2441.654	31.51342	-20.14078	0.5089964
64.63933	2440.211	31.4756	-19.35724	0.5513328
64.69344	2438.782	31.45031	-18.54494	0.5938483
64.74754	2437.375	31.43477	-17.70276	0.6366779
64.80165	2436.003	31.42338	-16.82948	0.6799797
64.85576	2434.677	31.41385	-15.92383	0.7238988
64.90987	2433.41	31.40484	-14.9845	0.7685858
64.96397	2432.218	31.39711	-14.01014	0.8141556
65.01808	2431.108	31.39373	-12.99941	0.8607044
65.07219	2430.082	31.40261	-11.95096	0.9083068
65.1263	2429.137	31.43068	-10.86344	0.9570279
65.1804	2428.27	31.48059	-9.7355	1.006924
65.23451	2427.474	31.55411	-8.565829	1.058049
65.28862	2426.748	31.65322	-7.353124	1.110439
65.34273	2426.092	31.77587	-6.096139	1.164162
65.39684	2425.509	31.91676	-4.793651	1.219252
65.45094	2425.002	32.07106	-3.444481	1.275751
65.50505	2424.573	32.23408	-2.047486	1.33369
65.55916	2424.222	32.40237	-0.6015692	1.393113
65.61327	2423.948	32.56662	0.8943269	1.454056
65.66737	2423.752	32.71886	2.441219	1.516528
65.72148	2423.637	32.85307	4.040091	1.580498
65.77559	2423.605	32.96704	5.691899	1.645889
65.8297	2423.66	33.06342	7.397577	1.712576
65.8838	2423.805	33.14802	9.158042	1.78039
65.93791	2424.04	33.22997	10.97418	1.849133
65.99202	2424.36	33.31498	12.84688	1.918594
66.04613	2424.761	33.40467	14.77701	1.988558
66.10023	2425.236	33.50259	16.76546	2.058849
66.15434	2425.778	33.61545	18.81316	2.129278
66.20845	2426.38	33.74598	20.92104	2.199739
66.26256	2427.041	33.88991	23.09008	2.270133
66.31667	2427.768	34.04295	25.32129	2.340396
66.37077	2428.572	34.20229	27.61576	2.410511
66.42488	2429.464	34.36163	29.97458	2.480518
66.47899	2430.453	34.51649	32.39893	2.550528
66.5331	2431.548	34.66479	34.89001	2.620703
66.5872	2432.761	34.80549	37.44912	2.691234
66.64131	2434.1	34.93854	40.07758	2.762297
66.69542	2435.574	35.06651	42.77675	2.834118
66.74953	2437.196	35.19427	45.54808	2.906838
66.80363	2438.972	35.32499	48.39304	2.9806
66.85774	2440.905	35.4596	51.31314	3.055541
66.91185	2442.999	35.59877	54.30993	3.131784
66.96596	2445.256	35.74605	57.38494	3.209455
67.02007	2447.687	35.90633	60.53979	3.288682
67.07417	2450.299	36.08038	63.77605	3.369606
67.12828	2453.104	36.26221	67.09533	3.452394
67.18239	2456.108	36.444	70.49918	3.537235
67.2365	2459.315	36.62147	73.98911	3.624325
67.2906	2462.728	36.79656	77.56655	3.71388
67.34471	2466.349	36.97266	81.23286	3.806122
67.39882	2470.179	37.15259	84.98933	3.901282
67.45293	2474.218	37.33947	88.83711	3.99957
67.50703	2478.465	37.53447	92.77729	4.101206
67.56113	2482.918	37.73752	96.81084	4.206363
67.61524	2487.578	37.94946	100.9386	4.315173
67.66935	2492.444	38.17181	105.1614	4.427746
67.72346	2497.515	38.40368	109.48	4.543957
67.77757	2502.79	38.63951	113.8949	4.663756
67.83167	2508.27	38.87131	118.4066	4.786916
67.88578	2513.96	39.09254	123.0156	4.913111
67.93989	2519.867	39.30159	127.7223	5.041931
67.994	2525.999	39.49731	132.5269	5.172881
68.0481	2532.366	39.68216	137.4298	5.305458
68.10221	2538.977	39.86434	142.4312	5.439065
68.15632	2545.838	40.05271	147.531	5.573316
68.21043	2552.956	40.25383	152.7294	5.707629
68.26453	2560.339	40.47162	158.0262	5.841536
68.31864	2567.999	40.70947	163.4214	5.974557
68.37275	2575.953	40.96484	168.9146	6.106266
68.42686	2584.215	41.23089	174.5054	6.236305
68.48096	2592.798	41.50564	180.1935	6.364337
68.53507	2601.706	41.79163	185.9781	6.490065
68.58918	2610.948	42.09382	191.8587	6.613261
68.64329	2620.529	42.42045	197.8344	6.733723
68.6974	2630.459	42.77898	203.9042	6.851275
68.7515	2640.751	43.16859	210.0671	6.96578
68.80561	2651.42	43.58149	216.3219	7.077113
68.85972	2662.478	44.00713	222.6673	7.185166
68.91383	2673.932	44.43828	229.1019	7.289842
68.96793	2685.784	44.87807	235.6242	7.391068
69.02204	2698.031	45.3326	242.2327	7.488779
69.07615	2710.672	45.8054	248.9256	7.58292
69.13026	2723.706	46.2967	255.7012	7.673434
69.18436	2737.132	46.80187	262.5574	7.760281
69.23847	2750.947	47.31035	269.492	7.843445
69.29258	2765.155	47.81425	276.5023	7.92298
69.34669	2779.758	48.30801	283.5858	7.998836
69.40079	2794.76	48.79486	290.7389	8.071127
69.4549	2810.165	49.27857	297.9583	8.139893
69.50901	2825.978	49.76455	305.2399	8.205163
69.56312	2842.205	50.25968	312.5792	8.26693
69.61723	2858.853	50.77002	319.9713	8.325142
69.67133	2875.925	51.2994	327.4106	8.379649
69.72544	2893.423	51.8487	334.8912	8.430381
69.77955	2911.345	52.41502	342.4063	8.477029
69.83366	2929.692	52.99353	349.9487	8.519288
69.88776	2948.465	53.57911	357.5104	8.556678
69.94187	2967.668	54.16482	365.0828	8.588704
69.99598	2987.31	54.7436	372.6566	8.614786
70.05009	3007.401	55.31025	380.2217	8.634265
70.10419	3027.952	55.86104	387.7677	8.646566
70.1583	3048.975	56.39476	395.283	8.65102
70.21241	3070.482	56.91117	402.7556	8.647059
70.26652	3092.482	57.41242	410.1728	8.634173
70.32063	3114.983	57.89931	417.5211	8.61181
70.37473	3137.996	58.37074	424.7866	8.579556
70.42884	3161.525	58.82689	431.9546	8.537025
70.48295	3185.57	59.26897	439.0099	8.483819
70.53706	3210.128	59.69947	445.9371	8.419663
70.59116	3235.198	60.12266	452.7199	8.344275
70.64527	3260.776	60.55116	459.342	8.257527
70.69938	3286.849	60.99506	465.7866	8.159325
70.75349	3313.401	61.45699	472.0369	8.049653
70.80759	3340.417	61.92799	478.0758	7.928634
70.8617	3367.886	62.39778	483.8865	7.796342
70.91581	3395.805	62.85851	489.4522	7.653245
70.96992	3424.173	63.30375	494.7563	7.499681
71.02402	3452.992	63.72484	499.7829	7.336098
71.07813	3482.266	64.11954	504.5164	7.163143
71.13224	3511.993	64.49691	508.942	6.981578
71.18635	3542.166	64.8672	513.0455	6.792188
71.24046	3572.778	65.23892	516.8134	6.596007
71.29456	3603.823	65.61452	520.2334	6.394273
71.34867	3635.297	65.99518	523.2941	6.187976
71.40278	3667.192	66.37896	525.985	5.97864
71.45689	3699.5	66.76527	528.2968	5.767814
71.51099	3732.208	67.15645	530.2214	5.557113
71.5651	3765.305	67.55432	531.7519	5.348228
71.61921	3798.776	67.95656	532.8826	5.142963
71.67332	3832.606	68.35754	533.6089	4.94325
71.72742	3866.771	68.75035	533.9276	4.751024
71.78153	3901.241	69.13239	533.8367	4.568178
71.83564	3935.981	69.49953	533.3355	4.396652
71.88975	3970.952	69.84432	532.4242	4.238184
71.94386	4006.112	70.15614	531.1044	4.094355
71.99796	4041.417	70.42422	529.3788	3.966574
72.05207	4076.823	70.64445	527.2513	3.855948
72.10618	4112.278	70.81913	524.7264	3.763191
72.16029	4147.726	70.95254	521.8101	3.688698
72.21439	4183.102	71.04913	518.5088	3.632402
72.2685	4218.342	71.11353	514.8302	3.593801
72.32261	4253.375	71.14809	510.7827	3.571939
72.37672	4288.125	71.1522	506.3755	3.565507
72.43082	4322.509	71.118	501.6183	3.572781
72.48493	4356.451	71.03384	496.5219	3.591887
72.53904	4389.873	70.89418	491.0968	3.62071
72.59315	4422.704	70.70183	485.3548	3.657122
72.64725	4454.877	70.46677	479.3077	3.699023
72.70136	4486.327	70.19987	472.9678	3.744411
72.75547	4516.993	69.90636	466.3477	3.791402
72.80958	4546.82	69.59189	459.4603	3.838253
72.86369	4575.76	69.25832	452.3188	3.883297
72.91779	4603.777	68.90409	444.9366	3.925359
72.9719	4630.836	68.52428	437.3275	3.963172
73.02601	4656.909	68.11051	429.5052	3.995753
73.08012	4681.976	67.65794	421.4842	4.02232
73.13422	4706.026	67.16817	413.2786	4.042272
73.18833	4729.047	66.65111	404.9034	4.055161
73.24244	4751.037	66.11882	396.3735	4.060747
73.29655	4771.996	65.58754	387.7042	4.058813
73.35065	4791.942	65.06987	378.9112	4.049294
73.40476	4810.902	64.57727	370.0102	4.03212
73.45887	4828.906	64.12025	361.0175	4.007347
73.51298	4845.99	63.71191	351.9496	3.975072
73.56709	4862.192	63.35887	342.8232	3.935461
73.62119	4877.555	63.06476	333.6553	3.888693
73.6753	4892.123	62.82367	324.4629	3.835017
73.72941	4905.944	62.6263	315.2634	3.774746
73.78352	4919.064	62.46074	306.074	3.708093
73.83762	4931.516	62.31684	296.9122	3.635404
73.89173	4943.327	62.18654	287.795	3.556948
73.94584	4954.53	62.05774	278.7396	3.47304
73.99995	4965.161	61.91845	269.7626	3.384007
74.05405	4975.262	61.76409	260.8803	3.290121
74.10816	4984.872	61.59929	252.1087	3.191992
74.16227	4994.025	61.4322	243.463	3.089997
74.21638	5002.761	61.27244	234.9579	2.984666
74.27048	5011.122	61.1277	226.6075	2.876518
74.32459	5019.146	61.00903	218.4248	2.766202
74.3787	5026.871	60.92772	210.4222	2.654343
74.43281	5034.322	60.88726	202.6111	2.541655
74.48692	5041.528	60.88891	195.0017	2.429024
74.54102	5048.51	60.92246	187.6031	2.316952
74.59512	5055.283	60.97143	180.4232	2.206402
74.64923	5061.85	61.01779	173.4688	2.098197
74.70334	5068.209	61.04164	166.745	1.993187
74.75745	5074.358	61.03431	160.2559	1.892194
74.81155	5080.307	60.99683	154.0042	1.795974
74.86566	5086.07	60.93613	147.9913	1.705249
74.91977	5091.662	60.86774	142.2171	1.620668
74.97388	5097.083	60.80884	136.6806	1.542747
75.02798	5102.34	60.77161	131.3794	1.471869
75.08209	5107.448	60.76125	126.3099	1.408214
75.1362	5112.423	60.77988	121.4678	1.351769
75.19031	5117.277	60.82613	116.8476	1.302337
75.24442	5122.013	60.89907	112.443	1.259472
75.29852	5126.626	60.9995	108.2472	1.222555
75.35263	5131.109	61.12159	104.2527	1.190845
75.40674	5135.453	61.25381	100.4514	1.163585
75.46085	5139.65	61.38309	96.83521	1.140034
75.51495	5143.699	61.49786	93.39545	1.11955
75.56906	5147.598	61.59298	90.12353	1.101644
75.62317	5151.347	61.66247	87.01078	1.085978
75.67728	5154.953	61.70887	84.04861	1.072368
75.73138	5158.431	61.74196	81.22872	1.06085
75.78549	5161.793	61.77784	78.54285	1.051532
75.8396	5165.046	61.83519	75.98305	1.044664
75.89371	5168.194	61.92307	73.5416	1.040603
75.94781	5171.248	62.03659	71.21111	1.039823
76.00192	5174.219	62.16764	68.9845	1.042814
76.05603	5177.124	62.30903	66.85508	1.050117
76.11014	5179.971	62.45312	64.81641	1.06221
76.16425	5182.765	62.58973	62.86253	1.079546
76.21835	5185.506	62.70657	60.98785	1.102488
76.27246	5188.204	62.79312	59.18715	1.131316
76.32657	5190.859	62.84106	57.4556	1.166182
76.38068	5193.476	62.84896	55.78877	1.207097
76.43478	5196.049	62.82502	54.18255	1.253948
76.48889	5198.58	62.78243	52.63313	1.306517
76.543	5201.077	62.73336	51.13693	1.364501
76.59711	5203.555	62.68904	49.69061	1.427518
76.65121	5206.019	62.65508	48.29097	1.495112
76.70532	5208.463	62.63107	46.93499	1.566766
76.75943	5210.886	62.61153	45.61976	1.641933
76.81354	5213.292	62.58436	44.3425	1.720041
76.86765	5215.684	62.53988	43.10053	1.800526
76.92175	5218.057	62.47313	41.8913	1.882827
76.97586	5220.394	62.38306	40.71237	1.966389
77.02997	5222.677	62.26941	39.56141	2.050649
77.08408	5224.887	62.13239	38.43616	2.135044
77.13818	5227.001	61.97505	37.33451	2.218999
77.19229	5228.996	61.8035	36.25443	2.301943
77.2464	5230.855	61.62657	35.194	2.383325
77.30051	5232.57	61.45175	34.15145	2.462662
77.35461	5234.139	61.28711	33.12516	2.539531
77.40872	5235.571	61.14152	32.11367	2.6136
77.46283	5236.887	61.02612	31.11573	2.68462
77.51694	5238.109	60.95538	30.13032	2.752448
77.57104	5239.254	60.93949	29.15667	2.817056
77.62515	5240.336	60.97477	28.19426	2.878546
77.67926	5241.372	61.04663	27.24282	2.937159
77.73337	5242.377	61.14154	26.3023	2.993242
77.78748	5243.365	61.25206	25.37297	3.047286
77.84158	5244.347	61.37502	24.45532	3.099905
77.89569	5245.333	61.50546	23.55007	3.151832
77.9498	5246.328	61.63978	22.65814	3.203851
78.00391	5247.331	61.7753	21.78064	3.256759
78.05801	5248.34	61.91022	20.91881	3.311338
78.11212	5249.349	62.04086	20.07406	3.368321
78.16623	5250.36	62.16205	19.24793	3.428346
78.22034	5251.378	62.27534	18.44204	3.491914
78.27444	5252.408	62.38588	17.65813	3.559363
78.32855	5253.458	62.497	16.89798	3.630871
78.38266	5254.537	62.60838	16.16344	3.706456
78.43677	5255.634	62.71347	15.4564	3.785988
78.49088	5256.737	62.80341	14.77871	3.869199
78.54498	5257.83	62.87403	14.13219	3.955717
78.59909	5258.9	62.91805	13.51854	4.04513
78.6532	5259.931	62.92057	12.93933	4.137007
78.70731	5260.901	62.86997	12.396	4.230923
78.76141	5261.791	62.76223	11.88979	4.326469
78.81552	5262.577	62.59578	11.42177	4.423293
78.86963	5263.252	62.3643	10.99279	4.521102
78.92374	5263.805	62.06162	10.60352	4.619711
78.97784	5264.23	61.69013	10.25447	4.718952
79.03195	5264.527	61.25682	9.945933	4.818706
79.08606	5264.704	60.77158	9.678017	4.918851
79.14017	5264.768	60.24316	9.450605	5.019251
79.19427	5264.718	59.68244	9.263385	5.119743
79.24838	5264.56	59.09708	9.11587	5.220152
79.30249	5264.294	58.48937	9.007401	5.320262
79.3566	5263.93	57.85501	8.937212	5.419879
79.41071	5263.484	57.18646	8.904422	5.518802
79.46481	5262.983	56.47812	8.908085	5.61684
79.51892	5262.452	55.73838	8.947207	5.713818
79.57303	5261.913	54.97736	9.02076	5.809588
79.62714	5261.383	54.20449	9.12768	5.904035
79.68124	5260.877	53.43044	9.266908	5.997059
79.73535	5260.399	52.6657	9.437399	6.088564
79.78946	5259.956	51.91612	9.638141	6.178431
79.84357	5259.554	51.18851	9.868121	6.266499
79.89767	5259.208	50.49405	10.12632	6.352537
79.95178	5258.927	49.84425	10.41169	6.436239
80.00589	5258.72	49.24715	10.72318	6.517209
80.06	5258.584	48.70388	11.05973	6.594971
80.11411	5258.528	48.20829	11.42026	6.668966
80.16821	5258.549	47.75096	11.8037	6.738549
80.22232	5258.654	47.32683	12.20895	6.803002
80.27643	5258.842	46.93867	12.63492	6.861547
80.33054	5259.121	46.59459	13.0805	6.913364
80.38464	5259.493	46.29424	13.54457	6.957617
80.43875	5259.96	46.0348	14.02595	6.993479
80.49286	5260.516	45.82669	14.52341	7.020182
80.54697	5261.16	45.68794	15.03556	7.037005
80.60107	5261.886	45.62706	15.56094	7.043317
80.65518	5262.695	45.64166	16.09795	7.03857
80.70929	5263.586	45.72714	16.64489	7.022303
80.7634	5264.557	45.87782	17.19992	6.994155
80.8175	5265.604	46.08519	17.76109	6.953878
80.87161	5266.737	46.33827	18.32635	6.901337
80.92572	5267.96	46.62702	18.89352	6.836495
80.97983	5269.282	46.93882	19.46032	6.759417
81.03394	5270.704	47.26211	20.02437	6.670247
81.08804	5272.226	47.57706	20.58319	6.569208
81.14215	5273.84	47.8664	21.13419	6.456594
81.19626	5275.535	48.12344	21.67472	6.332757
81.25037	5277.299	48.35177	22.2021	6.198096
81.30447	5279.113	48.55537	22.71361	6.053045
81.35858	5280.96	48.73796	23.20658	5.898101
81.41269	5282.827	48.89929	23.67839	5.73381
81.4668	5284.711	49.03971	24.12648	5.560794
81.5209	5286.62	49.15592	24.54843	5.379767
81.575	5288.562	49.2416	24.94197	5.191562
81.62911	5290.543	49.2933	25.30497	4.997142
81.68322	5292.562	49.30823	25.63552	4.797589
81.73733	5294.615	49.2851	25.93187	4.594094
81.79144	5296.702	49.21738	26.19244	4.387968
81.84554	5298.821	49.09991	26.41585	4.180633
81.89965	5300.969	48.93072	26.60082	3.973629
81.95376	5303.14	48.70981	26.74626	3.768612
82.00787	5305.328	48.43822	26.85118	3.56735
82.06197	5307.522	48.11951	26.91476	3.371736
82.11608	5309.708	47.75727	26.93628	3.183757
82.17019	5311.863	47.35466	26.91522	3.005506
82.2243	5313.97	46.91852	26.85123	2.839144
82.2784	5316.016	46.46301	26.74411	2.686887
82.33251	5317.999	46.00605	26.59381	2.550952
82.38662	5319.912	45.56064	26.40043	2.433458
82.44073	5321.754	45.14182	26.16418	2.336264
82.49483	5323.529	44.77047	25.88542	2.260841
82.54894	5325.247	44.46245	25.56458	2.207989
82.60305	5326.916	44.22273	25.20219	2.177722
82.65716	5328.546	44.04708	24.79889	2.169158
82.71127	5330.145	43.92691	24.35542	2.18058
82.76537	5331.716	43.84899	23.87264	2.20963
82.81948	5333.252	43.80124	23.35146	2.253555
82.87359	5334.75	43.77112	22.7929	2.309449
82.9277	5336.203	43.75024	22.19799	2.374448
82.9818	5337.608	43.73292	21.56781	2.445874
83.03591	5338.95	43.71403	20.90346	2.521339
83.09002	5340.217	43.68243	20.20604	2.598809
83.14413	5341.394	43.63345	19.47666	2.676579
83.19823	5342.488	43.57269	18.71639	2.753245
83.25234	5343.507	43.51216	17.92627	2.827692
83.30645	5344.466	43.45726	17.10734	2.899071
83.36056	5345.37	43.40979	16.26061	2.966764
83.41467	5346.23	43.37088	15.38709	3.030357
83.46877	5347.047	43.34376	14.48778	3.08962
83.52288	5347.831	43.32798	13.5637	3.144473
83.57699	5348.59	43.32066	12.61591	3.194943
83.6311	5349.334	43.3104	11.64551	3.241158
83.6852	5350.059	43.28615	10.65359	3.283274
83.73931	5350.759	43.2332	9.641321	3.321534
83.79342	5351.419	43.14507	8.609851	3.356214
83.84753	5352.032	43.02066	7.560319	3.387637
83.90163	5352.58	42.86465	6.493822	3.416165
83.95574	5353.056	42.6822	5.41142	3.442206
84.00985	5353.45	42.48209	4.314107	3.46622
84.06396	5353.764	42.27687	3.202812	3.488715
84.11806	5353.995	42.07857	2.078397	3.510257
84.17217	5354.149	41.89495	0.941654	3.531419
84.22628	5354.227	41.72638	-0.2066978	3.552786
84.28039	5354.239	41.56782	-1.366007	3.57492
84.3345	5354.188	41.41266	-2.535711	3.598332
84.3886	5354.083	41.25081	-3.715323	3.623478
84.44271	5353.921	41.07386	-4.904444	3.650753
84.49682	5353.706	40.87675	-6.102745	3.680489
84.55093	5353.432	40.65468	-7.309953	3.712928
84.60503	5353.094	40.40398	-8.525807	3.748192
84.65914	5352.678	40.12469	-9.750051	3.786298
84.71325	5352.178	39.81836	-10.9824	3.827192
84.76736	5351.59	39.49141	-12.22258	3.870762
84.82146	5350.919	39.15195	-13.47026	3.916866
84.87557	5350.175	38.8087	-14.72513	3.965345
84.92968	5349.376	38.47305	-15.98682	4.016048
84.98379	5348.536	38.15293	-17.25497	4.068829
85.0379	5347.658	37.84293	-18.52923	4.123554
85.092	5346.729	37.53286	-19.8093	4.180097
85.14611	5345.738	37.21662	-21.09488	4.238331
85.20022	5344.677	36.89413	-22.38577	4.298125
85.25433	5343.543	36.56156	-23.68172	4.359337
85.30843	5342.333	36.20952	-24.98256	4.421794
85.36254	5341.05	35.83265	-26.28806	4.485304
85.41665	5339.689	35.43478	-27.59798	4.549641
85.47076	5338.24	35.02902	-28.91206	4.614533
85.52486	5336.693	34.63602	-30.22992	4.679675
85.57897	5335.042	34.27706	-31.55112	4.744727
85.63308	5333.28	33.96783	-32.87507	4.809311
85.68719	5331.407	33.71496	-34.2011	4.873047
85.74129	5329.425	33.51396	-35.52845	4.935541
85.7954	5327.339	33.35685	-36.85629	4.996416
85.84951	5325.159	33.23674	-38.18369	5.055297
85.90362	5322.898	33.14387	-39.50968	5.11183
85.95773	5320.567	33.06197	-40.83318	5.165692
86.01183	5318.173	32.97635	-42.15305	5.216587
86.06594	5315.727	32.87111	-43.46811	5.264275
86.12005	5313.23	32.73511	-44.77711	5.308567
86.17416	5310.684	32.56226	-46.07883	5.34932
86.22826	5308.077	32.35429	-47.37201	5.386433
86.28237	5305.4	32.12109	-48.65541	5.419879
86.33648	5302.641	31.87966	-49.92778	5.449693
86.39059	5299.792	31.64156	-51.18793	5.47599
86.44469	5296.848	31.41733	-52.43466	5.498951
86.4988	5293.819	31.20917	-53.66682	5.518782
86.55291	5290.717	31.01364	-54.88326	5.535702
86.60702	5287.553	30.82251	-56.08284	5.549919
86.66113	5284.336	30.6251	-57.26444	5.56165
86.71523	5281.075	30.41212	-58.42697	5.571096
86.76934	5277.763	30.17674	-59.56935	5.578461
86.82345	5274.395	29.91255	-60.69051	5.583941
86.87756	5270.965	29.61432	-61.78942	5.587779
86.93166	5267.477	29.27967	-62.86508	5.590192
86.98577	5263.925	28.90947	-63.91658	5.591433
87.03988	5260.306	28.50228	-64.94308	5.591769
87.09399	5256.61	28.06833	-65.94385	5.591472
87.14809	5252.838	27.62829	-66.91824	5.590829
87.2022	5248.978	27.19974	-67.86573	5.590139
87.25631	5245.02	26.78906	-68.78591	5.589705
87.31042	5240.954	26.39718	-69.67852	5.589764
87.36452	5236.785	26.02051	-70.54337	5.590576
87.41863	5232.515	25.65123	-71.3804	5.592347
87.47274	5228.163	25.27316	-72.1897	5.595237
87.52685	5223.738	24.8798	-72.97141	5.599361
87.58096	5219.254	24.46881	-73.72574	5.604779
87.63506	5214.715	24.04181	-74.45301	5.611486
87.68917	5210.127	23.59763	-75.15357	5.619434
87.74328	5205.489	23.13732	-75.82786	5.628519
87.79739	5200.813	22.67002	-76.47634	5.63861
87.85149	5196.104	22.21284	-77.09958	5.649549
87.9056	5191.373	21.77849	-77.69811	5.661161
87.95971	5186.621	21.3785	-78.2725	5.673276
88.01382	5181.859	21.01778	-78.82328	5.685733
88.06792	5177.086	20.69327	-79.35101	5.698394
88.12203	5172.313	20.39005	-79.85627	5.711125
88.17614	5167.54	20.09198	-80.33968	5.723804
88.23025	5162.774	19.78233	-80.80193	5.736312
88.28436	5158.02	19.45756	-81.24374	5.748525
88.33846	5153.282	19.11611	-81.66593	5.760282
88.39257	5148.547	18.76036	-82.06935	5.771415
88.44668	5143.812	18.39685	-82.45491	5.781724
88.50079	5139.069	18.03724	-82.82358	5.791035
88.55489	5134.319	17.6958	-83.17635	5.799103
88.60899	5129.555	17.38332	-83.51428	5.805699
88.6631	5124.784	17.10641	-83.8384	5.810574
88.71721	5120.01	16.87112	-84.14979	5.813491
88.77132	5115.247	16.67859	-84.44946	5.814184
88.82542	5110.505	16.52651	-84.7385	5.812378
88.87953	5105.802	16.40795	-85.01796	5.807763
88.93364	5101.14	16.31348	-85.2889	5.80006
88.98775	5096.516	16.22573	-85.55237	5.788978
89.04185	5091.924	16.12785	-85.80943	5.774277
89.09596	5087.361	16.0091	-86.06113	5.755759
89.15007	5082.819	15.86428	-86.30855	5.733297
89.20418	5078.292	15.69184	-86.55273	5.706835
89.25829	5073.771	15.4942	-86.79472	5.676387
89.31239	5069.256	15.27602	-87.03555	5.642063
89.3665	5064.739	15.047	-87.27627	5.604073
89.42061	5060.218	14.81312	-87.51788	5.562709
89.47472	5055.69	14.58061	-87.76138	5.518337
89.52882	5051.159	14.35429	-88.00773	5.471388
89.58293	5046.624	14.13352	-88.25785	5.422316
89.63704	5042.088	13.91175	-88.51261	5.371586
89.69115	5037.552	13.67529	-88.7728	5.31966
89.74525	5033.015	13.40856	-89.03915	5.266994
89.79936	5028.472	13.09944	-89.31226	5.213996
89.85347	5023.922	12.7384	-89.59259	5.161037
89.90758	5019.361	12.32047	-89.88048	5.108465
89.96169	5014.786	11.84688	-90.1761	5.05664
90.01579	5010.187	11.32863	-90.47948	5.005916
90.0699	5005.563	10.78231	-90.79053	4.956636
90.12401	5000.907	10.22842	-91.10901	4.909194
90.17812	4996.212	9.686435	-91.43462	4.863987
90.23222	4991.476	9.179248	-91.76701	4.821379
90.28633	4986.698	8.721682	-92.10573	4.781696
90.34044	4981.878	8.313092	-92.45038	4.745232
90.39455	4977.016	7.942622	-92.80054	4.712222
90.44865	4972.122	7.594146	-93.1558	4.682839
90.50276	4967.21	7.256423	-93.51572	4.657193
90.55687	4962.296	6.91536	-93.87988	4.635287
90.61098	4957.382	6.560834	-94.24783	4.61704
90.66508	4952.454	6.187508	-94.6191	4.602296
90.71919	4947.488	5.797816	-94.99319	4.590778
90.7733	4942.463	5.393892	-95.3696	4.582136
90.82741	4937.361	4.989732	-95.74777	4.575926
90.88152	4932.178	4.606935	-96.12714	4.571652
90.93562	4926.913	4.268628	-96.50708	4.568756
90.98973	4921.578	3.987247	-96.8869	4.566665
91.04384	4916.184	3.770188	-97.2659	4.564795
91.09795	4910.744	3.615907	-97.64329	4.562561
91.15205	4905.266	3.517963	-98.01826	4.559402
91.20616	4899.754	3.46023	-98.38998	4.554773
91.26027	4894.213	3.429451	-98.75751	4.548172
91.31438	4888.643	3.418772	-99.11995	4.539154
91.36848	4883.041	3.42289	-99.47643	4.527342
91.42259	4877.405	3.434365	-99.82612	4.512439
91.4767	4871.732	3.446189	-100.1683	4.494238
91.53081	4866.021	3.446991	-100.5024	4.472663
91.58492	4860.26	3.425819	-100.8276	4.447754
91.63902	4854.455	3.373816	-101.1433	4.419677
91.69313	4848.603	3.297286	-101.449	4.388715
91.74724	4842.711	3.211106	-101.7439	4.355223
91.80135	4836.783	3.13313	-102.0275	4.319613
91.85545	4830.837	3.072757	-102.2991	4.282364
91.90956	4824.885	3.029155	-102.5583	4.243982
91.96367	4818.945	2.99043	-102.8045	4.204986
92.01778	4813.026	2.941568	-103.0372	4.16591
92.07188	4807.145	2.862475	-103.2562	4.127234
92.12599	4801.301	2.738896	-103.4608	4.089463
92.1801	4795.505	2.56849	-103.6508	4.053038
92.23421	4789.753	2.357639	-103.8259	4.018377
92.28831	4784.043	2.109918	-103.9857	3.98585
92.34242	4778.358	1.838437	-104.1302	3.955816
92.39653	4772.687	1.556068	-104.259	3.928978
92.45064	4767.005	1.287985	-104.255	3.912535
92.50475	4761.307	1.07384	-104.2437	3.896208
92.55885	4755.587	0.9701559	-104.2276	3.880744
92.61296	4749.858	1.007306	-104.2086	3.866572
92.66707	4744.124	1.162822	-104.188	3.85392
92.72118	4738.394	1.393464	-104.1664	3.842852
92.77528	4732.672	1.669453	-104.1441	3.833333
92.82939	4726.961	1.970468	-104.1211	3.825259
92.8835	4721.256	2.285156	-104.0974	3.818523
92.93761	4715.554	2.608869	-104.0728	3.812984
92.99171	4709.843	2.935191	-104.0473	3.808516
93.04582	4704.125	3.260315	-104.0207	3.804987
93.09993	4698.396	3.579227	-103.9929	3.802278
93.15404	4692.66	3.894271	-103.9639	3.800269
93.20815	4686.922	4.208685	-103.9334	3.798851
93.26225	4681.188	4.521964	-103.9016	3.797929
93.31636	4675.448	4.826005	-103.8682	3.797401
93.37047	4669.702	5.111464	-103.8334	3.797182
93.42458	4663.944	5.368077	-103.797	3.7972
93.47868	4658.188	5.586782	-103.759	3.797387
93.53279	4652.441	5.76538	-103.7194	3.797682
93.5869	4646.723	5.909238	-103.6782	3.798037
93.64101	4641.043	6.026711	-103.6354	3.798403
93.69511	4635.404	6.127969	-103.5909	3.798745
93.74922	4629.81	6.223871	-103.5448	3.799031
93.80333	4624.271	6.322852	-103.4971	3.799236
93.85744	4618.779	6.420963	-103.4477	3.799344
93.91154	4613.319	6.513192	-103.3968	3.799343
93.96565	4607.86	6.591229	-103.3443	3.799225
94.01976	4602.38	6.656225	-103.2902	3.798992
94.07387	4596.875	6.71553	-103.2346	3.798662
94.12798	4591.346	6.790498	-103.1774	3.798223
94.18208	4585.856	6.910849	-103.1188	3.797701
94.23619	4580.41	7.048999	-103.0586	3.797107
94.2903	4574.999	7.193592	-102.997	3.796451
94.34441	4569.612	7.340244	-102.9339	3.795753
94.39851	4564.246	7.486424	-102.8695	3.795026
94.45262	4558.895	7.631833	-102.8036	3.794289
94.50673	4553.554	7.776224	-102.7364	3.793559
94.56084	4548.219	7.920057	-102.6679	3.792855
94.61494	4542.887	8.064953	-102.5982	3.792202
94.66905	4537.555	8.211275	-102.5272	3.791612
94.72316	4532.221	8.360789	-102.4551	3.791111
94.77727	4526.881	8.51384	-102.3818	3.790715
94.83138	4521.533	8.671896	-102.3074	3.790452
94.88548	4516.178	8.835557	-102.232	3.790339
94.93959	4510.817	9.006893	-102.1555	3.790396
94.9937	4505.455	9.186302	-102.0781	3.790642
