T[Â°C]	350nm [counts / mm]	S.D.	First derivative	S.D. of first derivative
20.00055	4104.273	45.49069	-57.69584	1.646527
20.05466	4100.933	45.38257	-57.6848	1.62554
20.10877	4097.599	45.27277	-57.6738	1.605095
20.16287	4094.27	45.16181	-57.66284	1.585212
20.21698	4090.948	45.05032	-57.65191	1.565917
20.27109	4087.631	44.93953	-57.64103	1.547232
20.3252	4084.319	44.82984	-57.63019	1.529177
20.3793	4081.012	44.72242	-57.6194	1.511777
20.43341	4077.71	44.61794	-57.60866	1.49505
20.48752	4074.413	44.5163	-57.59798	1.479018
20.54163	4071.12	44.41752	-57.58736	1.463696
20.59574	4067.83	44.32135	-57.5768	1.449107
20.64984	4064.545	44.22806	-57.56631	1.435266
20.70395	4061.264	44.13644	-57.55589	1.422186
20.75806	4057.988	44.04478	-57.54554	1.409885
20.81217	4054.717	43.95068	-57.53527	1.398372
20.86627	4051.456	43.84824	-57.52508	1.387657
20.92038	4048.22	43.72667	-57.51497	1.377747
20.97449	4045.152	43.67638	-57.50495	1.368647
21.02859	4042.118	43.64924	-57.49501	1.360359
21.0827	4039.109	43.64552	-57.48517	1.35288
21.13681	4036.111	43.6634	-57.47542	1.346209
21.19092	4033.111	43.7015	-57.46577	1.340333
21.24503	4030.101	43.75671	-57.45622	1.335245
21.29913	4027.073	43.82141	-57.44678	1.330934
21.35324	4024.021	43.88715	-57.43745	1.327372
21.40735	4020.945	43.9473	-57.42823	1.324543
21.46146	4017.845	43.99815	-57.41914	1.322412
21.51556	4014.726	44.0403	-57.41018	1.320951
21.56967	4011.593	44.07553	-57.40134	1.320113
21.62378	4008.453	44.10746	-57.39265	1.319852
21.67789	4005.309	44.14088	-57.38409	1.320104
21.73199	4002.166	44.17859	-57.37567	1.32081
21.7861	3999.022	44.2191	-57.36739	1.321892
21.84021	3995.88	44.25823	-57.35925	1.323274
21.89432	3992.74	44.29118	-57.35123	1.324863
21.94843	3989.601	44.31017	-57.34335	1.32657
22.00253	3986.458	44.30884	-57.33559	1.328298
22.05664	3983.307	44.28534	-57.32795	1.32995
22.11075	3980.144	44.23768	-57.32042	1.331427
22.16486	3976.969	44.1645	-57.31298	1.332636
22.21896	3973.784	44.06376	-57.30563	1.333503
22.27307	3970.599	43.93772	-57.29834	1.333984
22.32718	3967.426	43.79458	-57.2911	1.33409
22.38129	3964.278	43.64593	-57.28389	1.333939
22.43539	3961.163	43.50554	-57.27671	1.333807
22.4895	3958.087	43.3886	-57.26957	1.334201
22.54361	3955.05	43.30646	-57.26248	1.335895
22.59772	3952.048	43.26708	-57.25546	1.33982
22.65182	3949.074	43.27169	-57.24576	1.351683
22.70593	3946.126	43.3119	-57.23436	1.362442
22.76004	3943.196	43.376	-57.22117	1.371971
22.81415	3940.272	43.44898	-57.20615	1.380171
22.86825	3937.339	43.51765	-57.18929	1.386969
22.92236	3934.383	43.57415	-57.17064	1.392317
22.97647	3931.397	43.61356	-57.15025	1.396201
23.03058	3928.382	43.63504	-57.12825	1.398637
23.08468	3925.34	43.6391	-57.10477	1.39965
23.13879	3922.272	43.62793	-57.08	1.399275
23.1929	3919.179	43.60981	-57.05412	1.397543
23.24701	3916.063	43.59599	-57.02733	1.394476
23.30112	3912.93	43.59628	-56.99983	1.390062
23.35522	3909.782	43.61699	-56.97182	1.384278
23.40933	3906.625	43.65786	-56.94349	1.377097
23.46344	3903.459	43.71358	-56.91503	1.368498
23.51755	3900.285	43.77248	-56.88663	1.358502
23.57165	3897.105	43.82187	-56.85847	1.347146
23.62576	3893.918	43.85072	-56.8307	1.334503
23.67987	3890.722	43.85135	-56.80347	1.320674
23.73398	3887.517	43.81897	-56.77691	1.305794
23.78808	3884.308	43.75293	-56.75113	1.290025
23.84219	3881.104	43.65543	-56.7262	1.273546
23.8963	3877.911	43.52889	-56.70218	1.256553
23.95041	3874.738	43.3775	-56.67907	1.239263
24.00451	3871.59	43.20696	-56.65686	1.221915
24.05862	3868.468	43.02348	-56.63548	1.204771
24.11273	3865.367	42.82995	-56.61488	1.1881
24.16684	3862.282	42.63044	-56.59497	1.17217
24.22095	3859.212	42.4315	-56.57567	1.157206
24.27505	3856.156	42.24009	-56.55691	1.143399
24.32916	3853.113	42.05772	-56.53864	1.13087
24.38327	3850.078	41.88321	-56.5208	1.119671
24.43737	3847.046	41.71619	-56.50333	1.109777
24.49148	3844.018	41.55183	-56.48616	1.101075
24.54559	3840.998	41.38491	-56.46921	1.093388
24.5997	3837.986	41.21181	-56.45237	1.086495
24.6538	3834.987	41.02962	-56.43557	1.080162
24.70791	3832.003	40.84088	-56.41872	1.074136
24.76202	3829.038	40.65295	-56.40172	1.06818
24.81613	3826.086	40.4774	-56.3845	1.062045
24.87024	3823.141	40.32605	-56.367	1.055524
24.92434	3820.195	40.20316	-56.34912	1.048423
24.97845	3817.244	40.11261	-56.3308	1.04058
25.03256	3814.288	40.05599	-56.31196	1.031855
25.08667	3811.324	40.03112	-56.29256	1.022124
25.14077	3808.348	40.03106	-56.27259	1.011278
25.19488	3805.358	40.04531	-56.25208	0.9992034
25.24899	3802.351	40.06329	-56.2311	0.9857924
25.3031	3799.326	40.07997	-56.20977	0.9709393
25.3572	3796.288	40.09523	-56.18821	0.9545537
25.41131	3793.242	40.11209	-56.16657	0.9365662
25.46542	3790.196	40.1364	-56.14496	0.916926
25.51953	3787.152	40.16973	-56.12352	0.8956109
25.57364	3784.111	40.20961	-56.10235	0.8726251
25.62774	3781.072	40.25114	-56.08156	0.8480365
25.68185	3778.034	40.28947	-56.06124	0.8219599
25.73596	3775	40.32345	-56.04146	0.7945713
25.79007	3771.967	40.35361	-56.02225	0.7661254
25.84417	3768.932	40.37841	-56.0036	0.7369336
25.89828	3765.895	40.39801	-55.98549	0.7074016
25.95239	3762.853	40.41158	-55.96785	0.6780465
26.0065	3759.804	40.42165	-55.95058	0.6495239
26.0606	3756.751	40.4286	-55.93354	0.6226777
26.11471	3753.695	40.43058	-55.9166	0.5985329
26.16882	3750.641	40.42426	-55.89962	0.5782948
26.22293	3747.591	40.4059	-55.88243	0.5632717
26.27703	3744.55	40.37108	-55.86494	0.5547832
26.33114	3741.52	40.31972	-55.84704	0.5539615
26.38525	3738.501	40.25872	-55.82865	0.5615648
26.43936	3735.49	40.20008	-55.80971	0.5778401
26.49346	3732.486	40.15643	-55.79016	0.6024645
26.54757	3729.489	40.13596	-55.76996	0.6346431
26.60168	3726.494	40.13916	-55.74903	0.6732282
26.65579	3723.498	40.16521	-55.72736	0.7168623
26.70989	3720.497	40.20925	-55.7049	0.7641159
26.764	3717.488	40.26518	-55.68167	0.8135659
26.81811	3714.462	40.3287	-55.65769	0.8638861
26.87222	3711.416	40.39096	-55.63298	0.9138628
26.92632	3708.348	40.44655	-55.60758	0.9624088
26.98043	3705.262	40.49368	-55.5815	1.008549
27.03454	3702.164	40.53417	-55.55478	1.051431
27.08865	3699.057	40.56894	-55.52746	1.090328
27.14276	3695.949	40.59705	-55.49958	1.124655
27.19686	3692.839	40.61588	-55.47118	1.153949
27.25097	3689.732	40.62211	-55.44225	1.177866
27.30508	3686.634	40.61417	-55.41275	1.196186
27.35919	3683.548	40.59164	-55.38263	1.208823
27.41329	3680.48	40.55428	-55.3518	1.215825
27.4674	3677.435	40.50075	-55.3202	1.217357
27.52151	3674.412	40.43204	-55.28782	1.213674
27.57562	3671.406	40.35033	-55.25462	1.205117
27.62972	3668.414	40.25598	-55.22067	1.1921
27.68383	3665.432	40.14922	-55.18602	1.17511
27.73794	3662.458	40.03284	-55.15074	1.154677
27.79205	3659.492	39.91085	-55.11497	1.131374
27.84616	3656.536	39.78629	-55.07885	1.1058
27.90026	3653.593	39.65586	-55.0425	1.078574
27.95437	3650.666	39.51083	-55.00609	1.05031
28.00848	3647.759	39.34236	-54.96973	1.02159
28.06258	3644.876	39.14832	-54.93358	0.9929419
28.11669	3642.018	38.93316	-54.89772	0.9648417
28.1708	3639.178	38.69988	-54.86226	0.9377134
28.22491	3636.343	38.45259	-54.82729	0.9119141
28.27901	3633.502	38.19669	-54.79285	0.8877375
28.33312	3630.645	37.93924	-54.75904	0.8654066
28.38723	3627.766	37.69129	-54.72588	0.8450639
28.44134	3624.865	37.4673	-54.69339	0.8267702
28.49545	3621.942	37.27529	-54.66159	0.8105166
28.54955	3619	37.11668	-54.63044	0.7962123
28.60366	3616.046	36.99184	-54.59996	0.783701
28.65777	3613.084	36.89839	-54.57015	0.7727836
28.71188	3610.119	36.83344	-54.54104	0.7632303
28.76598	3607.152	36.79627	-54.5127	0.754804
28.82009	3604.186	36.78221	-54.48521	0.7472561
28.8742	3601.219	36.78426	-54.45866	0.7403549
28.92831	3598.247	36.80152	-54.43319	0.7338728
28.98241	3595.274	36.83588	-54.40892	0.7276027
29.03652	3592.306	36.88472	-54.38597	0.7213396
29.09063	3589.349	36.9437	-54.36445	0.7148891
29.14474	3586.406	37.01124	-54.34439	0.7080399
29.19884	3583.472	37.08744	-54.32579	0.7006082
29.25295	3580.538	37.17347	-54.30857	0.6924375
29.30706	3577.596	37.27119	-54.29261	0.6834347
29.36117	3574.641	37.38435	-54.27772	0.6735646
29.41528	3571.676	37.51139	-54.26374	0.6628656
29.46938	3568.705	37.64869	-54.25045	0.6514191
29.52349	3565.735	37.79361	-54.23768	0.6393448
29.5776	3562.775	37.94503	-54.22524	0.6267935
29.63171	3559.834	38.09689	-54.21295	0.6139392
29.68581	3556.919	38.23936	-54.20063	0.6009449
29.73992	3554.034	38.36581	-54.18813	0.5879703
29.79403	3551.181	38.47214	-54.17532	0.5751705
29.84813	3548.353	38.55534	-54.16212	0.5627173
29.90224	3545.538	38.61092	-54.14846	0.5507922
29.95635	3542.72	38.63456	-54.13435	0.5395844
30.01046	3539.88	38.62608	-54.11979	0.5292724
30.06457	3537.01	38.59211	-54.10484	0.5200279
30.11867	3534.103	38.53849	-54.08953	0.5120189
30.17278	3531.161	38.47387	-54.07391	0.5054111
30.22689	3528.188	38.40419	-54.05802	0.5003704
30.281	3525.189	38.3315	-54.04186	0.4970484
30.3351	3522.168	38.25487	-54.02542	0.4955969
30.38921	3519.132	38.17568	-54.00868	0.4961372
30.44332	3516.088	38.0983	-53.99162	0.4987607
30.49743	3513.044	38.02741	-53.97422	0.5034966
30.55153	3510.007	37.96955	-53.95647	0.5103062
30.60564	3506.987	37.92516	-53.93838	0.5190873
30.65975	3503.991	37.89062	-53.91995	0.5296899
30.71386	3501.022	37.85719	-53.90117	0.5418982
30.76797	3498.08	37.81423	-53.88201	0.5554692
30.82207	3495.162	37.75212	-53.86245	0.5701225
30.87618	3492.262	37.6684	-53.8425	0.585578
30.93029	3489.368	37.56853	-53.82216	0.6015633
30.9844	3486.469	37.45995	-53.80149	0.6178091
31.0385	3483.559	37.34537	-53.78052	0.6340643
31.09261	3480.639	37.22569	-53.75933	0.6500785
31.14672	3477.713	37.10463	-53.73798	0.6656238
31.20083	3474.784	36.98563	-53.71653	0.6804858
31.25493	3471.861	36.87132	-53.69505	0.6944689
31.30904	3468.95	36.76669	-53.6736	0.7073818
31.36315	3466.057	36.6741	-53.65221	0.719049
31.41726	3463.186	36.59065	-53.63094	0.7293165
31.47136	3460.337	36.50911	-53.60978	0.7380484
31.52547	3457.511	36.42554	-53.5887	0.7451435
31.57958	3454.702	36.33876	-53.56765	0.7505065
31.63369	3451.901	36.24876	-53.54652	0.7540318
31.68779	3449.095	36.15997	-53.52524	0.7556154
31.7419	3446.279	36.07917	-53.50368	0.7551688
31.79601	3443.452	36.01344	-53.48175	0.7526315
31.85012	3440.61	35.96626	-53.45934	0.7479926
31.90422	3437.754	35.93552	-53.43639	0.7412997
31.95833	3434.88	35.91096	-53.41288	0.732657
32.01244	3431.987	35.88439	-53.38881	0.7222263
32.06655	3429.078	35.85154	-53.36425	0.7102261
32.12066	3426.155	35.81476	-53.3393	0.696915
32.17476	3423.223	35.78186	-53.31413	0.6825804
32.22887	3420.287	35.76268	-53.2889	0.6675227
32.28298	3417.352	35.7652	-53.26384	0.6520245
32.33709	3414.421	35.78798	-53.23916	0.6363257
32.39119	3411.503	35.82263	-53.21511	0.6206318
32.4453	3408.601	35.85764	-53.19193	0.6050705
32.49941	3405.718	35.88704	-53.16985	0.5896997
32.55352	3402.848	35.90682	-53.14904	0.5745209
32.60762	3399.992	35.91708	-53.12964	0.5594894
32.66173	3397.149	35.91949	-53.11169	0.5445698
32.71584	3394.316	35.91306	-53.09515	0.5297555
32.76995	3391.488	35.89703	-53.07992	0.5151106
32.82405	3388.659	35.86969	-53.06583	0.5007763
32.87816	3385.826	35.83158	-53.05271	0.4869632
32.93227	3382.986	35.7883	-53.04033	0.4739794
32.98638	3380.135	35.74614	-53.02847	0.4622071
33.04049	3377.268	35.70909	-53.01691	0.4521192
33.09459	3374.383	35.68288	-53.00545	0.4442243
33.1487	3371.485	35.66954	-52.99389	0.4390473
33.20281	3368.583	35.66734	-52.98204	0.4370565
33.25692	3365.684	35.6725	-52.96973	0.4386242
33.31102	3362.797	35.682	-52.95682	0.4439761
33.36513	3359.924	35.69345	-52.9432	0.4531577
33.41924	3357.062	35.70693	-52.92877	0.4660378
33.47335	3354.205	35.72032	-52.91344	0.4823259
33.52745	3351.351	35.73016	-52.89713	0.501595
33.58156	3348.497	35.73354	-52.87978	0.5233014
33.63567	3345.641	35.72802	-52.8613	0.5468525
33.68978	3342.783	35.7158	-52.84163	0.5716415
33.74389	3339.923	35.70294	-52.82069	0.5970725
33.79799	3337.059	35.69763	-52.79838	0.6225738
33.8521	3334.187	35.70797	-52.77459	0.6476124
33.90621	3331.305	35.73846	-52.7492	0.6716866
33.96032	3328.414	35.78665	-52.72209	0.694348
34.01442	3325.522	35.84288	-52.69316	0.7152153
34.06853	3322.64	35.89545	-52.66236	0.7339802
34.12263	3319.777	35.93478	-52.62967	0.7504115
34.17674	3316.936	35.95539	-52.59515	0.764362
34.23085	3314.112	35.9568	-52.55888	0.7757478
34.28496	3311.297	35.94188	-52.52102	0.7845535
34.33907	3308.485	35.91547	-52.48177	0.7908177
34.39317	3305.673	35.87674	-52.44136	0.7946438
34.44728	3302.861	35.82039	-52.40004	0.7961874
34.50139	3300.046	35.74208	-52.35806	0.7956637
34.5555	3297.218	35.63842	-52.31566	0.7933303
34.6096	3294.368	35.51202	-52.27309	0.7895004
34.66371	3291.492	35.36968	-52.23058	0.7845122
34.71782	3288.59	35.21963	-52.18834	0.778706
34.77193	3285.673	35.07045	-52.14656	0.7724223
34.82603	3282.753	34.92864	-52.10541	0.7659748
34.88014	3279.845	34.79848	-52.06503	0.7596256
34.93425	3276.959	34.67789	-52.02555	0.753587
34.98836	3274.096	34.56375	-51.98706	0.7480018
35.04247	3271.248	34.45749	-51.94967	0.7429584
35.09657	3268.409	34.36373	-51.91343	0.7384908
35.15068	3265.576	34.28594	-51.87839	0.7345905
35.20479	3262.748	34.22424	-51.84458	0.7312271
35.2589	3259.93	34.17471	-51.81201	0.7283561
35.313	3257.122	34.13025	-51.78069	0.7259289
35.36711	3254.323	34.08485	-51.75058	0.7238902
35.42122	3251.529	34.03722	-51.72169	0.7222059
35.47533	3248.733	33.9886	-51.69398	0.7208428
35.52943	3245.936	33.94257	-51.66742	0.7197861
35.58354	3243.138	33.8999	-51.642	0.7190408
35.63765	3240.345	33.86161	-51.61771	0.7186317
35.69176	3237.57	33.83211	-51.59454	0.7185963
35.74586	3234.823	33.81446	-51.57251	0.7189594
35.79997	3232.109	33.80801	-51.55162	0.7197256
35.85408	3229.424	33.81515	-51.53186	0.7208613
35.90819	3226.759	33.84077	-51.51316	0.7223127
35.9623	3224.102	33.88345	-51.49544	0.7240064
36.0164	3221.442	33.93623	-51.47857	0.7258737
36.07051	3218.772	33.98918	-51.46243	0.7278513
36.12462	3216.09	34.03285	-51.44685	0.7298887
36.17873	3213.392	34.05707	-51.43169	0.7319665
36.23283	3210.672	34.05816	-51.41679	0.7340887
36.28694	3207.928	34.03819	-51.402	0.7363034
36.34105	3205.165	34.00447	-51.3872	0.7386991
36.39516	3202.39	33.96636	-51.37226	0.7414174
36.44926	3199.614	33.93452	-51.3571	0.7446406
36.50337	3196.845	33.91763	-51.34168	0.7485859
36.55748	3194.093	33.91554	-51.326	0.7534938
36.61159	3191.358	33.92479	-51.31013	0.7596024
36.6657	3188.635	33.93891	-51.29414	0.7671475
36.7198	3185.919	33.95029	-51.27814	0.776358
36.77391	3183.201	33.95382	-51.26226	0.7874294
36.82802	3180.477	33.95152	-51.2466	0.8005058
36.88213	3177.742	33.94594	-51.23127	0.815662
36.93623	3174.992	33.93683	-51.21635	0.8328713
36.99034	3172.227	33.92342	-51.20195	0.8520029
37.04445	3169.444	33.90695	-51.1881	0.8728192
37.09856	3166.641	33.89103	-51.17484	0.8950249
37.15266	3163.821	33.87886	-51.16214	0.9182823
37.20677	3160.985	33.87275	-51.14996	0.9422519
37.26088	3158.145	33.87239	-51.13821	0.9666044
37.31499	3155.304	33.87246	-51.12677	0.9910319
37.36909	3152.468	33.86683	-51.11549	1.01527
37.4232	3149.641	33.84997	-51.10419	1.039077
37.47731	3146.829	33.81839	-51.09265	1.062246
37.53142	3144.029	33.77303	-51.08063	1.084606
37.58552	3141.228	33.71519	-51.06788	1.106031
37.63963	3138.417	33.65098	-51.05415	1.126437
37.69374	3135.59	33.58679	-51.03922	1.145774
37.74784	3132.745	33.52428	-51.02292	1.164012
37.80195	3129.887	33.46142	-51.00505	1.18112
37.85606	3127.022	33.39626	-50.98548	1.197057
37.91017	3124.159	33.32822	-50.96405	1.211773
37.96428	3121.304	33.25597	-50.94065	1.225205
38.01838	3118.462	33.18142	-50.9152	1.237285
38.07249	3115.636	33.10741	-50.88762	1.247941
38.1266	3112.83	33.03017	-50.85786	1.257096
38.18071	3110.043	32.94263	-50.82593	1.264679
38.23481	3107.276	32.83813	-50.79182	1.270622
38.28892	3104.526	32.71311	-50.75556	1.274871
38.34303	3101.794	32.56557	-50.71723	1.277397
38.39714	3099.081	32.3949	-50.67691	1.278185
38.45124	3096.385	32.20621	-50.63469	1.277229
38.50535	3093.701	32.00397	-50.59074	1.27454
38.55946	3091.022	31.79312	-50.54522	1.27012
38.61357	3088.343	31.58269	-50.49834	1.26399
38.66768	3085.663	31.37935	-50.45033	1.256183
38.72178	3082.983	31.18579	-50.40141	1.246748
38.77589	3080.303	31.00579	-50.35183	1.235742
38.83	3077.618	30.84157	-50.30186	1.223221
38.88411	3074.922	30.69004	-50.25178	1.209236
38.93821	3072.21	30.54728	-50.20189	1.193811
38.99232	3069.481	30.41088	-50.1525	1.176949
39.04643	3066.737	30.28222	-50.10392	1.158617
39.10054	3063.983	30.16632	-50.05642	1.138788
39.15464	3061.223	30.07212	-50.01028	1.117434
39.20875	3058.465	30.00831	-49.96571	1.094539
39.26286	3055.712	29.97823	-49.92289	1.070123
39.31697	3052.969	29.98103	-49.88198	1.044245
39.37107	3050.234	30.01196	-49.84303	1.016999
39.42518	3047.515	30.0623	-49.80605	0.9885138
39.47929	3044.815	30.12495	-49.771	0.958961
39.5334	3042.135	30.19407	-49.73779	0.928542
39.58751	3039.473	30.26728	-49.70629	0.8975053
39.64161	3036.827	30.33791	-49.67633	0.8661472
39.69572	3034.193	30.39836	-49.64775	0.8348088
39.74983	3031.563	30.44436	-49.62031	0.8038484
39.80394	3028.932	30.4733	-49.59378	0.7736375
39.85804	3026.299	30.48461	-49.56794	0.7445427
39.91215	3023.67	30.47885	-49.54253	0.7169089
39.96626	3021.05	30.459	-49.51734	0.6910703
40.02037	3018.444	30.43266	-49.49218	0.6673341
40.07447	3015.856	30.40519	-49.46689	0.6459769
40.12858	3013.283	30.37603	-49.44135	0.6272042
40.18269	3010.725	30.34153	-49.41548	0.611146
40.2368	3008.173	30.29894	-49.38924	0.5977957
40.2909	3005.622	30.2504	-49.36263	0.5870096
40.34501	3003.064	30.1988	-49.3357	0.5784781
40.39912	3000.499	30.15262	-49.30852	0.5717525
40.45323	2997.922	30.11887	-49.28115	0.5662939
40.50734	2995.327	30.09831	-49.2537	0.5614992
40.56144	2992.709	30.08861	-49.22623	0.5567587
40.61555	2990.07	30.08556	-49.19883	0.5515034
40.66966	2987.406	30.08637	-49.17157	0.5452455
40.72377	2984.72	30.09044	-49.14456	0.5375926
40.77787	2982.014	30.09812	-49.1179	0.5282745
40.83198	2979.298	30.10895	-49.09173	0.5171461
40.88609	2976.573	30.12197	-49.06617	0.5041999
40.9402	2973.842	30.13563	-49.04137	0.4895733
40.9943	2971.108	30.15053	-49.01745	0.4735237
41.04841	2968.372	30.16832	-48.99456	0.4564079
41.10252	2965.633	30.19283	-48.97277	0.4386703
41.15662	2962.889	30.2287	-48.95216	0.4208167
41.21073	2960.144	30.27966	-48.93275	0.4034317
41.26484	2957.397	30.3463	-48.91449	0.3871564
41.31895	2954.648	30.42385	-48.89733	0.3726603
41.37305	2951.899	30.5042	-48.88115	0.3605976
41.42716	2949.152	30.5777	-48.86578	0.3515303
41.48127	2946.41	30.63573	-48.85106	0.3458425
41.53538	2943.671	30.67672	-48.83676	0.3436622
41.58949	2940.935	30.70028	-48.82267	0.3448386
41.64359	2938.208	30.70201	-48.80856	0.3489314
41.6977	2935.497	30.67813	-48.79414	0.3552741
41.75181	2932.807	30.62761	-48.77916	0.3630559
41.80592	2930.144	30.55021	-48.76334	0.3714074
41.86002	2927.51	30.44896	-48.74638	0.3794531
41.91413	2924.905	30.33145	-48.728	0.3863869
41.96824	2922.322	30.20867	-48.70794	0.3914923
42.02235	2919.756	30.09352	-48.68596	0.3941784
42.07645	2917.201	29.99791	-48.66183	0.3939934
42.13056	2914.649	29.93099	-48.63539	0.3906444
42.18467	2912.096	29.89266	-48.60648	0.384004
42.23878	2909.544	29.87613	-48.57505	0.3741291
42.29288	2906.995	29.86679	-48.54109	0.3612397
42.34699	2904.454	29.85125	-48.50463	0.3457506
42.4011	2901.918	29.82097	-48.46577	0.3282574
42.45521	2899.385	29.77229	-48.42465	0.309567
42.50932	2896.848	29.70513	-48.38147	0.2907135
42.56342	2894.304	29.61945	-48.33644	0.2729765
42.61753	2891.754	29.51986	-48.28986	0.2578693
42.67164	2889.194	29.41445	-48.24205	0.2470326
42.72575	2886.622	29.31026	-48.19334	0.2419966
42.77985	2884.038	29.21224	-48.1441	0.2438276
42.83396	2881.442	29.12284	-48.09472	0.252831
42.88807	2878.832	29.04519	-48.04556	0.2685163
42.94218	2876.207	28.98294	-47.99693	0.2898626
42.99628	2873.569	28.93876	-47.94916	0.3156682
43.05039	2870.92	28.91261	-47.90247	0.3448004
43.1045	2868.26	28.90294	-47.85707	0.3763198
43.15861	2865.591	28.90685	-47.81313	0.4094813
43.21272	2862.912	28.91832	-47.77079	0.4437189
43.26682	2860.222	28.92957	-47.73013	0.4786085
43.32093	2857.523	28.93531	-47.69122	0.5138344
43.37504	2854.824	28.93541	-47.65411	0.5491651
43.42915	2852.136	28.93229	-47.61877	0.584434
43.48325	2849.473	28.92914	-47.58521	0.6195238
43.53736	2846.842	28.93127	-47.55339	0.6543797
43.59147	2844.246	28.94579	-47.52326	0.6889914
43.64558	2841.682	28.9792	-47.49477	0.7233825
43.69968	2839.143	29.03128	-47.46789	0.7575832
43.75379	2836.624	29.09822	-47.44254	0.7916074
43.8079	2834.12	29.17606	-47.41866	0.8254462
43.86201	2831.627	29.26078	-47.39613	0.8590725
43.91611	2829.144	29.34983	-47.37484	0.8924546
43.97022	2826.671	29.44167	-47.35464	0.9255619
44.02433	2824.206	29.53649	-47.33538	0.9583604
44.07844	2821.742	29.6332	-47.31691	0.9907793
44.13255	2819.272	29.73085	-47.29905	1.022712
44.18665	2816.789	29.82914	-47.28165	1.053991
44.24076	2814.29	29.92407	-47.26452	1.084373
44.29487	2811.777	30.00941	-47.24754	1.113558
44.34898	2809.254	30.07833	-47.23055	1.141193
44.40308	2806.729	30.12729	-47.21346	1.166907
44.45719	2804.206	30.15574	-47.19621	1.190317
44.5113	2801.689	30.16371	-47.17875	1.211066
44.56541	2799.176	30.15471	-47.16108	1.228809
44.61951	2796.664	30.13279	-47.1432	1.243249
44.67362	2794.144	30.09975	-47.12513	1.254116
44.72773	2791.61	30.0551	-47.10692	1.261214
44.78183	2789.056	29.99627	-47.0886	1.264416
44.83594	2786.48	29.91991	-47.07023	1.263688
44.89005	2783.886	29.82112	-47.05183	1.259091
44.94416	2781.278	29.69526	-47.03343	1.250808
44.99826	2778.661	29.54246	-47.01499	1.239139
45.05237	2776.044	29.36757	-46.99649	1.224483
45.10648	2773.436	29.18074	-46.97787	1.207301
45.16059	2770.843	28.99195	-46.95907	1.188103
45.21469	2768.268	28.80925	-46.94001	1.16741
45.2688	2765.715	28.6359	-46.9206	1.145729
45.32291	2763.18	28.4739	-46.90078	1.123549
45.37702	2760.663	28.32126	-46.88047	1.1013
45.43113	2758.162	28.17193	-46.8596	1.079375
45.48523	2755.675	28.02255	-46.83812	1.058115
45.53934	2753.196	27.8746	-46.81601	1.037801
45.59345	2750.72	27.73537	-46.79323	1.018636
45.64756	2748.243	27.61258	-46.76978	1.000764
45.70166	2745.762	27.51143	-46.74565	0.9842328
45.75577	2743.275	27.43271	-46.72083	0.9689922
45.80988	2740.778	27.3714	-46.69529	0.9548994
45.86399	2738.265	27.31766	-46.66903	0.9417344
45.91809	2735.735	27.26355	-46.64204	0.9292327
45.9722	2733.188	27.2074	-46.61433	0.9170994
46.02631	2730.627	27.14708	-46.58591	0.9050206
46.08042	2728.055	27.08115	-46.5568	0.8926926
46.13453	2725.475	27.01502	-46.52699	0.879793
46.18863	2722.893	26.95757	-46.49645	0.8660186
46.24274	2720.309	26.91508	-46.46516	0.8510741
46.29685	2717.721	26.89196	-46.43311	0.8346892
46.35096	2715.133	26.89096	-46.40027	0.8166415
46.40506	2712.547	26.91204	-46.36665	0.7967964
46.45917	2709.966	26.94632	-46.33228	0.7751261
46.51328	2707.389	26.98506	-46.29719	0.7517149
46.56739	2704.817	27.02272	-46.26141	0.7267752
46.62149	2702.253	27.05451	-46.22499	0.7006077
46.6756	2699.7	27.07609	-46.188	0.6736109
46.72971	2697.159	27.08781	-46.15049	0.6462387
46.78382	2694.631	27.09491	-46.11252	0.6189706
46.83792	2692.11	27.10262	-46.07418	0.5922874
46.89203	2689.596	27.11234	-46.03554	0.5666596
46.94614	2687.083	27.12375	-45.99667	0.5425139
47.00025	2684.573	27.13283	-45.95761	0.5202227
47.05436	2682.068	27.13343	-45.91845	0.5000837
47.10846	2679.572	27.12097	-45.87922	0.4823037
47.16257	2677.091	27.09421	-45.83997	0.4669891
47.21668	2674.63	27.05474	-45.80074	0.4541413
47.27079	2672.19	27.00719	-45.76156	0.4436852
47.32489	2669.771	26.95873	-45.72247	0.4354919
47.379	2667.371	26.91518	-45.6835	0.4294312
47.43311	2664.988	26.88002	-45.64469	0.4253803
47.48722	2662.62	26.85106	-45.60609	0.423263
47.54132	2660.264	26.82091	-45.56779	0.4230309
47.59543	2657.916	26.78217	-45.52988	0.4246666
47.64954	2655.568	26.73295	-45.49243	0.4281448
47.70365	2653.214	26.67624	-45.45555	0.433435
47.75776	2650.844	26.62112	-45.41934	0.4404548
47.81186	2648.452	26.57549	-45.38393	0.4490756
47.86597	2646.038	26.54473	-45.34949	0.4591319
47.92008	2643.602	26.53534	-45.31619	0.4704073
47.97419	2641.147	26.54977	-45.28425	0.4826567
48.02829	2638.678	26.58441	-45.25388	0.4955946
48.0824	2636.197	26.63553	-45.22527	0.508917
48.13651	2633.707	26.6987	-45.19859	0.5223236
48.19061	2631.214	26.76701	-45.17396	0.5355096
48.24472	2628.724	26.83631	-45.15145	0.5481944
48.29883	2626.24	26.90816	-45.1311	0.5601204
48.35294	2623.768	26.98777	-45.11288	0.5710706
48.40704	2621.311	27.07536	-45.09673	0.580866
48.46115	2618.87	27.16568	-45.08254	0.589373
48.51526	2616.442	27.25446	-45.07016	0.5964935
48.56937	2614.021	27.33475	-45.0594	0.602177
48.62347	2611.603	27.39873	-45.05001	0.6064093
48.67758	2609.186	27.44038	-45.04175	0.6092195
48.73169	2606.772	27.45391	-45.03436	0.6106843
48.7858	2604.365	27.43323	-45.02758	0.6109182
48.8399	2601.964	27.3773	-45.02116	0.6100835
48.89401	2599.569	27.28909	-45.01483	0.608354
48.94812	2597.177	27.17342	-45.00839	0.6059305
49.00223	2594.783	27.03341	-45.00163	0.6030087
49.05634	2592.386	26.87377	-44.99436	0.5997819
49.11044	2589.99	26.69892	-44.9864	0.5964367
49.16455	2587.592	26.51285	-44.97758	0.5931341
49.21866	2585.195	26.3168	-44.96772	0.5900134
49.27277	2582.799	26.1109	-44.95664	0.5871888
49.32687	2580.402	25.89964	-44.94419	0.5847484
49.38098	2578.003	25.6898	-44.93018	0.5827467
49.43509	2575.603	25.48925	-44.91444	0.5811951
49.4892	2573.2	25.30638	-44.8968	0.5800742
49.5433	2570.789	25.14724	-44.8771	0.5793382
49.59741	2568.366	25.01008	-44.85519	0.5789212
49.65152	2565.927	24.88937	-44.83099	0.5787347
49.70563	2563.471	24.7834	-44.80443	0.5786908
49.75974	2560.997	24.69556	-44.7755	0.5786934
49.81384	2558.508	24.62878	-44.74427	0.5786527
49.86795	2556.007	24.58582	-44.71085	0.5784716
49.92206	2553.498	24.57011	-44.67541	0.5780693
49.97617	2550.989	24.58263	-44.63814	0.577366
50.03027	2548.485	24.62212	-44.59928	0.5762928
50.08438	2545.983	24.68343	-44.55907	0.5747856
50.13849	2543.485	24.75859	-44.51775	0.5727875
50.1926	2540.992	24.83786	-44.47559	0.5702669
50.2467	2538.508	24.91222	-44.4328	0.5672066
50.30081	2536.033	24.97878	-44.38961	0.5636131
50.35492	2533.566	25.03626	-44.3462	0.5595135
50.40903	2531.104	25.08545	-44.30269	0.5549474
50.46313	2528.641	25.12802	-44.25919	0.5499738
50.51724	2526.175	25.16377	-44.21576	0.544683
50.57135	2523.708	25.19351	-44.17244	0.5391818
50.62546	2521.241	25.2217	-44.12923	0.5336061
50.67957	2518.778	25.25374	-44.08615	0.52813
50.73367	2516.325	25.28682	-44.04318	0.5229642
50.78778	2513.887	25.31702	-44.00031	0.5183423
50.84189	2511.468	25.34173	-43.95755	0.5145205
50.896	2509.072	25.35837	-43.91492	0.5117505
50.9501	2506.7	25.36382	-43.87244	0.5102424
51.00421	2504.354	25.35701	-43.83018	0.510148
51.05832	2502.031	25.33851	-43.78817	0.5115438
51.11243	2499.73	25.30952	-43.74649	0.5144384
51.16653	2497.443	25.27018	-43.7052	0.5187867
51.22064	2495.162	25.22005	-43.66436	0.5244934
51.27475	2492.88	25.16053	-43.62401	0.5314299
51.32886	2490.592	25.09581	-43.58418	0.5394353
51.38297	2488.3	25.03011	-43.54484	0.5482917
51.43707	2486.007	24.97042	-43.50593	0.5577519
51.49118	2483.717	24.92758	-43.46735	0.5675222
51.54529	2481.43	24.9086	-43.42896	0.5772916
51.5994	2479.145	24.91438	-43.39064	0.5867326
51.6535	2476.862	24.94187	-43.35225	0.5955372
51.70761	2474.582	24.98707	-43.31363	0.6034236
51.76171	2472.305	25.04346	-43.27464	0.6101562
51.81582	2470.032	25.1	-43.23516	0.6155456
51.86993	2467.762	25.14633	-43.19512	0.6194642
51.92404	2465.496	25.17734	-43.15442	0.6218519
51.97815	2463.232	25.1911	-43.11305	0.6226913
52.03225	2460.965	25.18464	-43.07098	0.6220026
52.08636	2458.693	25.1566	-43.02821	0.6198481
52.14047	2456.41	25.10931	-42.98475	0.6163216
52.19458	2454.116	25.04737	-42.94061	0.6115628
52.24868	2451.812	24.97572	-42.89586	0.605743
52.30279	2449.501	24.89791	-42.85053	0.5990735
52.3569	2447.185	24.81692	-42.8047	0.5917787
52.41101	2444.868	24.73433	-42.75844	0.5840781
52.46511	2442.552	24.64613	-42.71184	0.5761727
52.51922	2440.244	24.54624	-42.665	0.5682241
52.57333	2437.946	24.43323	-42.61805	0.5603434
52.62744	2435.659	24.30761	-42.5711	0.5525748
52.68155	2433.383	24.17163	-42.5243	0.5449041
52.73565	2431.114	24.02831	-42.47783	0.5372659
52.78976	2428.844	23.88112	-42.43184	0.5295682
52.84387	2426.567	23.73332	-42.38654	0.5217074
52.89798	2424.278	23.58487	-42.34212	0.5135685
52.95208	2421.972	23.43676	-42.29878	0.505027
53.00619	2419.646	23.29102	-42.25669	0.4959448
53.0603	2417.296	23.15183	-42.21605	0.4861874
53.11441	2414.921	23.02906	-42.17702	0.4756263
53.16851	2412.523	22.93395	-42.13977	0.4641653
53.22262	2410.107	22.87382	-42.1044	0.4517388
53.27673	2407.678	22.85102	-42.07102	0.4383135
53.33084	2405.245	22.8635	-42.03968	0.4238728
53.38494	2402.812	22.90448	-42.01038	0.4084188
53.43905	2400.386	22.96565	-41.98307	0.3919778
53.49316	2397.97	23.04272	-41.95768	0.3746072
53.54727	2395.568	23.13313	-41.93404	0.3564152
53.60138	2393.187	23.23468	-41.91195	0.3375537
53.65548	2390.828	23.34472	-41.89114	0.3182298
53.70959	2388.494	23.45784	-41.87129	0.2986971
53.7637	2386.187	23.56508	-41.85204	0.279267
53.81781	2383.903	23.65671	-41.833	0.2603047
53.87191	2381.639	23.72684	-41.81382	0.2422182
53.92602	2379.392	23.77885	-41.79411	0.2254474
53.98013	2377.164	23.81994	-41.7735	0.210447
54.03424	2374.954	23.85331	-41.75164	0.1976533
54.08834	2372.766	23.87865	-41.72818	0.1874727
54.14245	2370.601	23.89333	-41.70279	0.1802318
54.19656	2368.461	23.89231	-41.6752	0.1761558
54.25067	2366.347	23.87236	-41.64515	0.1753607
54.30478	2364.253	23.8318	-41.61248	0.1778436
54.35888	2362.169	23.77267	-41.57706	0.1834888
54.41299	2360.083	23.69727	-41.53882	0.1921119
54.4671	2357.992	23.60995	-41.49774	0.2035046
54.52121	2355.895	23.52061	-41.45387	0.2174484
54.57531	2353.793	23.43984	-41.40731	0.2337421
54.62942	2351.687	23.37577	-41.35823	0.2521862
54.68353	2349.577	23.33185	-41.30686	0.2725896
54.73764	2347.459	23.30934	-41.25349	0.294755
54.79174	2345.33	23.30864	-41.19845	0.3184663
54.84585	2343.189	23.32801	-41.14214	0.3435031
54.89996	2341.038	23.36774	-41.08499	0.3696116
54.95407	2338.879	23.42798	-41.02747	0.3965019
55.00817	2336.709	23.50387	-40.97007	0.4238555
55.06228	2334.524	23.58832	-40.91333	0.4513252
55.11639	2332.315	23.67796	-40.8578	0.4785591
55.17049	2330.076	23.77047	-40.80397	0.505214
55.2246	2327.801	23.86222	-40.75235	0.530943
55.27871	2325.494	23.94981	-40.7034	0.5554106
55.33282	2323.156	24.03039	-40.65751	0.5782844
55.38692	2320.795	24.09824	-40.61504	0.5992562
55.44103	2318.418	24.14948	-40.5763	0.6180348
55.49514	2316.033	24.18497	-40.54147	0.6343719
55.54925	2313.647	24.20902	-40.51069	0.6480554
55.60336	2311.266	24.22803	-40.48397	0.6589333
55.65746	2308.895	24.24715	-40.46122	0.6669009
55.71157	2306.541	24.26584	-40.44225	0.6719476
55.76568	2304.212	24.27959	-40.42679	0.674134
55.81979	2301.912	24.2787	-40.41449	0.6735994
55.87389	2299.641	24.25277	-40.40491	0.670548
55.928	2297.397	24.19365	-40.39761	0.6652588
55.98211	2295.18	24.09799	-40.39204	0.6580665
56.03622	2292.982	23.96304	-40.38766	0.6493493
56.09032	2290.8	23.7879	-40.38387	0.6395309
56.14443	2288.634	23.57686	-40.3801	0.6290441
56.19854	2286.487	23.33968	-40.37578	0.6183065
56.25265	2284.363	23.0867	-40.37036	0.6077063
56.30676	2282.268	22.82561	-40.36335	0.597553
56.36086	2280.2	22.56107	-40.35429	0.5880964
56.41497	2278.155	22.29455	-40.34274	0.5795043
56.46908	2276.124	22.02844	-40.32834	0.5718814
56.52319	2274.101	21.76885	-40.31076	0.5652817
56.57729	2272.084	21.52385	-40.28972	0.5597024
56.6314	2270.069	21.30338	-40.26502	0.5551093
56.68551	2268.053	21.11843	-40.23651	0.551436
56.73962	2266.029	20.97513	-40.20412	0.5485957
56.79372	2263.992	20.87197	-40.16786	0.5464783
56.84783	2261.935	20.80314	-40.12783	0.5449719
56.90194	2259.856	20.76255	-40.08419	0.5439445
56.95605	2257.756	20.74224	-40.03717	0.5432422
57.01015	2255.635	20.73702	-39.98709	0.5427157
57.06426	2253.495	20.74415	-39.93433	0.5422358
57.11837	2251.34	20.761	-39.87934	0.5417016
57.17248	2249.17	20.78639	-39.82263	0.5410402
57.22659	2246.988	20.82325	-39.76471	0.5401829
57.28069	2244.792	20.878	-39.70613	0.5390689
57.3348	2242.581	20.95573	-39.64739	0.5376488
57.38891	2240.351	21.05776	-39.58899	0.5358714
57.44302	2238.107	21.18509	-39.5314	0.5336921
57.49712	2235.85	21.33865	-39.47505	0.5310882
57.55123	2233.581	21.51586	-39.42031	0.5280547
57.60534	2231.305	21.70801	-39.36748	0.5246043
57.65945	2229.029	21.90299	-39.3168	0.5207748
57.71355	2226.761	22.08791	-39.26842	0.5166193
57.76766	2224.506	22.25343	-39.22246	0.5122068
57.82177	2222.269	22.39392	-39.17894	0.5076176
57.87588	2220.048	22.50645	-39.13782	0.5029254
57.92999	2217.841	22.59086	-39.099	0.498225
57.98409	2215.647	22.64609	-39.06232	0.4936219
58.0382	2213.466	22.67052	-39.02757	0.4892558
58.09231	2211.296	22.66682	-38.99448	0.4852817
58.14642	2209.138	22.64168	-38.96277	0.4818658
58.20052	2206.99	22.60195	-38.93214	0.4791654
58.25463	2204.856	22.552	-38.90226	0.4773207
58.30874	2202.737	22.49514	-38.8728	0.4764557
58.36285	2200.636	22.43528	-38.84344	0.476689
58.41695	2198.552	22.37388	-38.81387	0.478139
58.47106	2196.483	22.31404	-38.78377	0.4809212
58.52517	2194.427	22.25651	-38.75285	0.4851497
58.57928	2192.387	22.19949	-38.72083	0.490903
58.63338	2190.364	22.1417	-38.68751	0.4982182
58.68749	2188.355	22.08273	-38.65268	0.507072
58.7416	2186.36	22.02378	-38.6162	0.5173795
58.7957	2184.374	21.96752	-38.57794	0.5289911
58.84981	2182.393	21.91675	-38.5378	0.5416877
58.90392	2180.414	21.87309	-38.4957	0.5551968
58.95803	2178.434	21.83795	-38.4516	0.5691939
59.01213	2176.453	21.8132	-38.4055	0.583353
59.06624	2174.468	21.7974	-38.35744	0.5973338
59.12035	2172.478	21.7835	-38.30754	0.6107721
59.17446	2170.481	21.76244	-38.25592	0.623309
59.22857	2168.476	21.72633	-38.20275	0.6345862
59.28267	2166.458	21.67061	-38.1482	0.6442723
59.33678	2164.426	21.59133	-38.09247	0.6520665
59.39089	2162.384	21.48889	-38.0358	0.6577085
59.445	2160.336	21.37359	-37.97843	0.6609738
59.4991	2158.281	21.26008	-37.92065	0.6617042
59.55321	2156.216	21.15888	-37.86272	0.6597967
59.60732	2154.14	21.07662	-37.80494	0.6552129
59.66143	2152.053	21.01591	-37.74756	0.6479812
59.71553	2149.961	20.97384	-37.69082	0.6381894
59.76964	2147.87	20.94269	-37.63494	0.6259865
59.82375	2145.792	20.9109	-37.58009	0.6115693
59.87786	2143.734	20.86894	-37.52638	0.5951833
59.93196	2141.699	20.80883	-37.47388	0.5771269
59.98607	2139.683	20.72622	-37.42258	0.5577322
60.04018	2137.678	20.61868	-37.37245	0.5373862
60.09429	2135.676	20.48916	-37.32339	0.5164935
60.1484	2133.667	20.34536	-37.27523	0.4954633
60.2025	2131.645	20.19617	-37.22779	0.4746759
60.25661	2129.608	20.05144	-37.18085	0.4544774
60.31072	2127.555	19.92063	-37.13414	0.4351582
60.36483	2125.487	19.81151	-37.08739	0.416953
60.41893	2123.406	19.73277	-37.0403	0.4000399
60.47304	2121.319	19.69306	-36.99258	0.3845283
60.52715	2119.231	19.69502	-36.94392	0.3704497
60.58126	2117.148	19.7327	-36.89403	0.3577553
60.63536	2115.078	19.79698	-36.84264	0.3463062
60.68947	2113.026	19.87889	-36.78946	0.3358844
60.74358	2110.994	19.96765	-36.73422	0.3262117
60.79769	2108.983	20.0547	-36.67667	0.3169739
60.8518	2106.987	20.13463	-36.61654	0.3078331
60.9059	2105.002	20.20391	-36.55359	0.2984543
60.96001	2103.021	20.25774	-36.48753	0.2885411
61.01412	2101.041	20.29635	-36.41812	0.2778382
61.06823	2099.06	20.32624	-36.34509	0.2661409
61.12233	2097.079	20.35553	-36.26818	0.253322
61.17644	2095.097	20.39561	-36.18719	0.2393062
61.23055	2093.115	20.45494	-36.10187	0.2240954
61.28466	2091.135	20.53737	-36.01205	0.2077666
61.33876	2089.161	20.63892	-35.91758	0.1904717
61.39287	2087.2	20.75093	-35.81835	0.1724319
61.44698	2085.258	20.86231	-35.71429	0.1539337
61.50109	2083.338	20.96046	-35.60538	0.1353539
61.55519	2081.441	21.03651	-35.49164	0.1171661
61.6093	2079.563	21.08701	-35.37316	0.1000087
61.66341	2077.701	21.1134	-35.25005	0.08479506
61.71752	2075.845	21.11823	-35.12246	0.07287953
61.77163	2073.992	21.1027	-34.99059	0.06607916
61.82573	2072.134	21.06671	-34.85461	0.06597107
61.87984	2070.263	21.0121	-34.71474	0.07261395
61.93395	2068.376	20.94559	-34.5712	0.08455175
61.98806	2066.47	20.87361	-34.42421	0.100136
62.04216	2064.546	20.80136	-34.27398	0.1182419
62.09627	2062.608	20.73283	-34.1207	0.1382606
62.15038	2060.66	20.66954	-33.96457	0.1599041
62.20448	2058.712	20.61286	-33.80572	0.1830519
62.25859	2056.769	20.56262	-33.64426	0.2076714
62.3127	2054.833	20.51784	-33.48027	0.2337665
62.36681	2052.91	20.47986	-33.31378	0.2613313
62.42091	2051.005	20.45317	-33.14477	0.2903303
62.47502	2049.123	20.44004	-32.97318	0.3206811
62.52913	2047.266	20.43651	-32.79889	0.3522629
62.58324	2045.434	20.43391	-32.6217	0.3849048
62.63734	2043.625	20.42457	-32.44136	0.4183931
62.69145	2041.838	20.40237	-32.25756	0.4524771
62.74556	2040.067	20.3663	-32.0699	0.4868772
62.79967	2038.311	20.32327	-31.87794	0.5212901
62.85378	2036.565	20.28185	-31.68117	0.5553874
62.90788	2034.827	20.24701	-31.47901	0.5888246
62.96199	2033.095	20.21973	-31.27084	0.6212386
63.0161	2031.369	20.1975	-31.05597	0.6522508
63.07021	2029.65	20.17521	-30.83371	0.6814799
63.12431	2027.943	20.15164	-30.60336	0.7085449
63.17842	2026.251	20.12713	-30.36418	0.7330661
63.23253	2024.581	20.10451	-30.11542	0.7546896
63.28664	2022.936	20.08893	-29.85636	0.7730955
63.34074	2021.321	20.08385	-29.58625	0.7880117
63.39485	2019.736	20.09118	-29.30433	0.7992272
63.44896	2018.18	20.11169	-29.00987	0.8065928
63.50307	2016.651	20.14252	-28.70216	0.8100171
63.55717	2015.143	20.1799	-28.38048	0.8094527
63.61128	2013.646	20.22123	-28.04416	0.8049024
63.66539	2012.155	20.26374	-27.69253	0.7964259
63.7195	2010.665	20.30496	-27.32497	0.7841274
63.77361	2009.177	20.33857	-26.94089	0.7681601
63.82771	2007.689	20.35788	-26.53972	0.7487087
63.88182	2006.202	20.35872	-26.12094	0.7259917
63.93593	2004.722	20.34158	-25.68407	0.7002492
63.99004	2003.251	20.30909	-25.22869	0.6717473
64.04414	2001.792	20.2652	-24.75437	0.6407735
64.09825	2000.348	20.21376	-24.26076	0.6076429
64.15236	1998.918	20.16075	-23.74751	0.5726849
64.20647	1997.501	20.11106	-23.21425	0.5362784
64.26057	1996.093	20.06824	-22.66067	0.4988594
64.31468	1994.688	20.03479	-22.0864	0.4609378
64.36879	1993.286	20.01188	-21.49112	0.4231279
64.4229	1991.887	19.99788	-20.87443	0.3862051
64.47701	1990.492	19.98861	-20.23592	0.3511598
64.53111	1989.099	19.97985	-19.57506	0.319346
64.58522	1987.709	19.96648	-18.8913	0.2925247
64.63933	1986.323	19.94048	-18.18398	0.272883
64.69344	1984.949	19.8943	-17.45237	0.2627437
64.74754	1983.596	19.82635	-16.69565	0.2639079
64.80165	1982.277	19.73951	-15.91295	0.2769121
64.85576	1981.002	19.63841	-15.10332	0.3008555
64.90987	1979.781	19.52939	-14.26573	0.3339945
64.96397	1978.619	19.42163	-13.39918	0.3744247
65.01808	1977.516	19.32496	-12.50258	0.4205483
65.07219	1976.477	19.24693	-11.57487	0.4711758
65.1263	1975.501	19.1889	-10.61496	0.525475
65.1804	1974.593	19.15392	-9.621753	0.5828815
65.23451	1973.753	19.14514	-8.594172	0.6430056
65.28862	1972.986	19.16256	-7.53115	0.7055632
65.34273	1972.292	19.20134	-6.43164	0.7703548
65.39684	1971.677	19.25635	-5.294588	0.8371903
65.45094	1971.143	19.3212	-4.118954	0.9059082
65.50505	1970.694	19.38633	-2.903703	0.9763554
65.55916	1970.331	19.44254	-1.647819	1.048384
65.61327	1970.052	19.48572	-0.3503059	1.121832
65.66737	1969.856	19.51576	0.9898166	1.196521
65.72148	1969.737	19.53688	2.373516	1.272248
65.77559	1969.689	19.55587	3.801746	1.348793
65.8297	1969.705	19.57994	5.275439	1.42592
65.8838	1969.783	19.61552	6.795508	1.503389
65.93791	1969.921	19.66687	8.362842	1.580954
65.99202	1970.118	19.7355	9.978298	1.65837
66.04613	1970.375	19.82009	11.64271	1.735398
66.10023	1970.697	19.92214	13.35686	1.811827
66.15434	1971.088	20.04433	15.12156	1.887437
66.20845	1971.553	20.18711	16.93756	1.962087
66.26256	1972.097	20.34873	18.80561	2.035675
66.31667	1972.726	20.52549	20.72647	2.108146
66.37077	1973.447	20.71292	22.70088	2.179494
66.42488	1974.263	20.90487	24.72961	2.249763
66.47899	1975.178	21.09732	26.81343	2.31904
66.5331	1976.192	21.28825	28.95315	2.387444
66.5872	1977.308	21.47549	31.14961	2.455101
66.64131	1978.528	21.65738	33.40371	2.52212
66.69542	1979.855	21.8353	35.71638	2.588657
66.74953	1981.296	22.01388	38.08861	2.654808
66.80363	1982.857	22.1967	40.52139	2.72068
66.85774	1984.543	22.38379	43.01579	2.786375
66.91185	1986.358	22.57609	45.57285	2.851984
66.96596	1988.304	22.77966	48.19367	2.917602
67.02007	1990.389	23.00273	50.87931	2.983332
67.07417	1992.624	23.24477	53.63087	3.049304
67.12828	1995.02	23.49904	56.44942	3.115685
67.18239	1997.583	23.75611	59.33601	3.182656
67.2365	2000.314	24.00751	62.29166	3.250423
67.2906	2003.21	24.24767	65.31736	3.319213
67.34471	2006.27	24.47544	68.41403	3.389265
67.39882	2009.491	24.69292	71.58258	3.460841
67.45293	2012.876	24.90317	74.82382	3.534209
67.50703	2016.423	25.10681	78.13853	3.609617
67.56113	2020.133	25.30461	81.52743	3.687271
67.61524	2024.009	25.49625	84.99113	3.767344
67.66935	2028.053	25.68166	88.53017	3.849989
67.72346	2032.265	25.86057	92.14509	3.93517
67.77757	2036.647	26.03458	95.83624	4.022916
67.83167	2041.204	26.20696	99.60395	4.113101
67.88578	2045.946	26.37985	103.4485	4.205539
67.93989	2050.883	26.55569	107.37	4.299974
67.994	2056.023	26.73116	111.3685	4.396104
68.0481	2061.38	26.89952	115.4442	4.49359
68.10221	2066.958	27.05754	119.5968	4.59205
68.15632	2072.762	27.20498	123.8263	4.691225
68.21043	2078.796	27.34439	128.1324	4.790742
68.26453	2085.067	27.48014	132.515	4.890289
68.31864	2091.585	27.61594	136.9735	4.989578
68.37275	2098.357	27.75471	141.5075	5.088361
68.42686	2105.388	27.89673	146.1163	5.186397
68.48096	2112.68	28.04307	150.7994	5.283487
68.53507	2120.234	28.1954	155.5557	5.37944
68.58918	2128.05	28.35415	160.3844	5.474059
68.64329	2136.133	28.52143	165.2845	5.567181
68.6974	2144.491	28.7024	170.2546	5.658622
68.7515	2153.138	28.90483	175.2934	5.748225
68.80561	2162.092	29.13437	180.3996	5.835786
68.85972	2171.365	29.3911	185.5714	5.921132
68.91383	2180.965	29.67165	190.8072	6.004074
68.96793	2190.892	29.97504	196.1051	6.084423
69.02204	2201.146	30.30184	201.4631	6.162012
69.07615	2211.729	30.65226	206.8792	6.236687
69.13026	2222.645	31.02334	212.3511	6.30832
69.18436	2233.893	31.41258	217.8764	6.376802
69.23847	2245.472	31.81774	223.4525	6.442071
69.29258	2257.379	32.23817	229.0766	6.504139
69.34669	2269.611	32.67385	234.7458	6.562969
69.40079	2282.168	33.12274	240.4568	6.618625
69.4549	2295.048	33.57873	246.206	6.671161
69.50901	2308.252	34.03847	251.9895	6.720631
69.56312	2321.782	34.50316	257.8033	6.767073
69.61723	2335.646	34.98054	263.6427	6.810444
69.67133	2349.853	35.4791	269.5029	6.850739
69.72544	2364.41	36.00198	275.3785	6.887888
69.77955	2379.319	36.54799	281.2638	6.921708
69.83366	2394.585	37.11609	287.1525	6.952013
69.88776	2410.211	37.70591	293.0382	6.978501
69.94187	2426.198	38.31392	298.9136	7.00088
69.99598	2442.551	38.93151	304.7713	7.018799
70.05009	2459.273	39.54734	310.6032	7.031831
70.10419	2476.362	40.15105	316.4009	7.039571
70.1583	2493.815	40.73244	322.1555	7.04156
70.21241	2511.632	41.28472	327.8576	7.037367
70.26652	2529.813	41.80475	333.4974	7.026516
70.32063	2548.357	42.2907	339.0649	7.008537
70.37473	2567.271	42.74402	344.5493	6.982947
70.42884	2586.559	43.17178	349.9399	6.949331
70.48295	2606.229	43.58544	355.2254	6.907231
70.53706	2626.286	43.99309	360.3942	6.856288
70.59116	2646.731	44.39911	365.4347	6.796133
70.64527	2667.564	44.80608	370.3347	6.726592
70.69938	2688.781	45.2131	375.0822	6.647493
70.75349	2710.372	45.61799	379.665	6.558748
70.80759	2732.33	46.01279	384.0707	6.460399
70.8617	2754.643	46.38855	388.2872	6.352445
70.91581	2777.301	46.74045	392.3022	6.235316
70.96992	2800.292	47.06655	396.1041	6.109261
71.02402	2823.61	47.3642	399.6812	5.974723
71.07813	2847.248	47.63007	403.0225	5.832306
71.13224	2871.199	47.86446	406.1172	5.682694
71.18635	2895.452	48.071	408.9555	5.526681
71.24046	2919.998	48.25699	411.5277	5.365254
71.29456	2944.827	48.43418	413.8252	5.199561
71.34867	2969.936	48.61459	415.8401	5.030517
71.40278	2995.321	48.80873	417.5651	4.85956
71.45689	3020.978	49.02509	418.994	4.688126
71.51099	3046.899	49.26939	420.1215	4.517735
71.5651	3073.077	49.5413	420.9431	4.350012
71.61921	3099.501	49.83438	421.4555	4.186659
71.67332	3126.156	50.14024	421.656	4.029446
71.72742	3153.022	50.44745	421.5432	3.880152
71.78153	3180.069	50.74895	421.1166	3.74045
71.83564	3207.27	51.03955	420.3765	3.611909
71.88975	3234.589	51.3144	419.3242	3.495886
71.94386	3261.995	51.56909	417.9619	3.393477
71.99796	3289.45	51.79885	416.2927	3.305484
72.05207	3316.922	52.00134	414.3203	3.23235
72.10618	3344.373	52.17689	412.0495	3.174069
72.16029	3371.769	52.32837	409.4855	3.13023
72.21439	3399.073	52.45846	406.6343	3.099944
72.2685	3426.245	52.56713	403.5026	3.082038
72.32261	3453.238	52.6527	400.0976	3.074994
72.37672	3479.999	52.71197	396.427	3.077127
72.43082	3506.472	52.74296	392.4992	3.086612
72.48493	3532.598	52.74075	388.323	3.101637
72.53904	3558.316	52.70224	383.9074	3.120277
72.59315	3583.568	52.62877	379.2619	3.140856
72.64725	3608.303	52.52306	374.3964	3.161727
72.70136	3632.474	52.38597	369.321	3.181451
72.75547	3656.04	52.21775	364.0459	3.198764
72.80958	3678.959	52.01872	358.5815	3.212492
72.86369	3701.197	51.78655	352.9384	3.221664
72.91779	3722.719	51.5195	347.1273	3.225657
72.9719	3743.507	51.21334	341.1591	3.223809
73.02601	3763.549	50.86855	335.0444	3.215793
73.08012	3782.839	50.49277	328.7944	3.201452
73.13422	3801.374	50.0988	322.4199	3.180766
73.18833	3819.147	49.70468	315.9322	3.153968
73.24244	3836.152	49.32289	309.3424	3.121347
73.29655	3852.389	48.95926	302.6618	3.083358
73.35065	3867.863	48.61573	295.902	3.04049
73.40476	3882.583	48.29412	289.0746	2.993265
73.45887	3896.563	47.99755	282.1913	2.942228
73.51298	3909.823	47.73254	275.2643	2.887919
73.56709	3922.389	47.50156	268.3056	2.830841
73.62119	3934.299	47.3002	261.3275	2.771402
73.6753	3945.593	47.12298	254.3424	2.709973
73.72941	3956.306	46.96466	247.3628	2.646814
73.78352	3966.479	46.81962	240.4012	2.582108
73.83762	3976.15	46.68657	233.4703	2.515954
73.89173	3985.358	46.5658	226.5824	2.44838
73.94584	3994.141	46.45609	219.75	2.379347
73.99995	4002.536	46.35509	212.9852	2.308758
74.05405	4010.573	46.26231	206.2999	2.23642
74.10816	4018.275	46.1817	199.7057	2.162402
74.16227	4025.659	46.11884	193.2136	2.086556
74.21638	4032.747	46.07607	186.8342	2.008843
74.27048	4039.563	46.04944	180.5775	1.929296
74.32459	4046.137	46.03334	174.453	1.84804
74.3787	4052.494	46.02248	168.4694	1.765256
74.43281	4058.658	46.01102	162.6349	1.681205
74.48692	4064.65	45.99159	156.9566	1.596336
74.54102	4070.484	45.95982	151.441	1.510832
74.59512	4076.171	45.91145	146.0936	1.425294
74.64923	4081.715	45.84099	140.9191	1.340263
74.70334	4087.124	45.74375	135.9209	1.256308
74.75745	4092.408	45.6256	131.102	1.174016
74.81155	4097.581	45.49688	126.4638	1.093942
74.86566	4102.646	45.37145	122.0071	1.016617
74.91977	4107.604	45.25865	117.7317	0.942526
74.97388	4112.454	45.16597	113.6364	0.8720714
75.02798	4117.195	45.09888	109.7189	0.805576
75.08209	4121.832	45.05801	105.9765	0.74326
75.1362	4126.368	45.04292	102.4054	0.6852197
75.19031	4130.803	45.05395	99.0011	0.6314874
75.24442	4135.127	45.0911	95.75858	0.582006
75.29852	4139.329	45.15474	92.67225	0.5366741
75.35263	4143.397	45.23899	89.73609	0.495398
75.40674	4147.331	45.33502	86.94375	0.458173
75.46085	4151.125	45.43772	84.28856	0.4251261
75.51495	4154.781	45.54913	81.76373	0.3965755
75.56906	4158.299	45.66785	79.36238	0.3729891
75.62317	4161.689	45.78971	77.07761	0.3549601
75.67728	4164.964	45.91243	74.90263	0.3430418
75.73138	4168.143	46.0328	72.83091	0.3375449
75.78549	4171.234	46.15101	70.85606	0.3384191
75.8396	4174.249	46.27078	68.97199	0.3451983
75.89371	4177.192	46.39415	67.17289	0.357101
75.94781	4180.079	46.51679	65.45327	0.3731611
76.00192	4182.921	46.63135	63.80793	0.3924222
76.05603	4185.729	46.73152	62.23203	0.4140506
76.11014	4188.505	46.8197	60.72101	0.43749
76.16425	4191.244	46.90171	59.27068	0.4623629
76.21835	4193.942	46.97996	57.87716	0.4885227
76.27246	4196.601	47.05415	56.53693	0.5160062
76.32657	4199.224	47.12009	55.24675	0.544969
76.38068	4201.818	47.1729	54.00366	0.5756354
76.43478	4204.387	47.21051	52.80497	0.6082342
76.48889	4206.939	47.23342	51.64816	0.6429206
76.543	4209.487	47.2463	50.53093	0.6797475
76.59711	4212.038	47.25764	49.45109	0.718653
76.65121	4214.59	47.27037	48.4066	0.759479
76.70532	4217.138	47.28393	47.39551	0.8019972
76.75943	4219.678	47.29617	46.41597	0.8459147
76.81354	4222.212	47.30111	45.46621	0.8909214
76.86765	4224.737	47.29313	44.5445	0.9366998
76.92175	4227.24	47.2713	43.64918	0.9829472
76.97586	4229.704	47.24206	42.77866	1.029383
77.02997	4232.114	47.20603	41.9314	1.075744
77.08408	4234.454	47.15601	41.10592	1.121777
77.13818	4236.712	47.08555	40.30079	1.167278
77.19229	4238.875	47.00056	39.51463	1.212098
77.2464	4240.933	46.9097	38.74613	1.256195
77.30051	4242.873	46.81851	37.99406	1.299664
77.35461	4244.693	46.73078	37.25723	1.342731
77.40872	4246.404	46.6455	36.53452	1.385744
77.46283	4248.02	46.56933	35.82495	1.429174
77.51694	4249.553	46.51387	35.12762	1.473621
77.57104	4251.018	46.48711	34.44178	1.519799
77.62515	4252.426	46.49162	33.76685	1.568526
77.67926	4253.792	46.527	33.10243	1.620637
77.73337	4255.132	46.58963	32.44831	1.67694
77.78748	4256.459	46.67501	31.80454	1.738171
77.84158	4257.787	46.78251	31.17135	1.804935
77.89569	4259.127	46.91151	30.5492	1.87767
77.9498	4260.487	47.05627	29.93875	1.956574
78.00391	4261.867	47.20644	29.34082	2.041613
78.05801	4263.269	47.35124	28.75645	2.132549
78.11212	4264.694	47.48059	28.1868	2.228944
78.16623	4266.146	47.59054	27.63319	2.330186
78.22034	4267.622	47.68727	27.09702	2.435518
78.27444	4269.122	47.78027	26.5798	2.544093
78.32855	4270.646	47.877	26.08303	2.655019
78.38266	4272.19	47.97744	25.60831	2.767414
78.43677	4273.744	48.07688	25.15718	2.880448
78.49088	4275.298	48.16472	24.73118	2.993355
78.54498	4276.843	48.2322	24.33175	3.105444
78.59909	4278.371	48.27023	23.96028	3.216113
78.6532	4279.873	48.26893	23.61805	3.324852
78.70731	4281.333	48.21974	23.30625	3.431249
78.76141	4282.74	48.11279	23.02592	3.534987
78.81552	4284.081	47.93933	22.77796	3.635829
78.86963	4285.344	47.69301	22.56307	3.733609
78.92374	4286.52	47.37521	22.3818	3.82824
78.97784	4287.607	46.98919	22.2345	3.919665
79.03195	4288.603	46.53741	22.12138	4.007883
79.08606	4289.512	46.02723	22.04244	4.092933
79.14017	4290.337	45.47282	21.99753	4.174887
79.19427	4291.082	44.89542	21.98633	4.253826
79.24838	4291.753	44.3132	22.00838	4.329839
79.30249	4292.357	43.73607	22.06304	4.402997
79.3566	4292.901	43.16809	22.14953	4.473408
79.41071	4293.398	42.60968	22.26697	4.541181
79.46481	4293.862	42.06318	22.41438	4.606449
79.51892	4294.309	41.53021	22.59068	4.669357
79.57303	4294.753	41.00866	22.79477	4.730048
79.62714	4295.205	40.49067	23.02549	4.788653
79.68124	4295.67	39.96483	23.28166	4.845291
79.73535	4296.155	39.42266	23.56215	4.900058
79.78946	4296.674	38.86179	23.86585	4.953018
79.84357	4297.24	38.28956	24.19171	5.004176
79.89767	4297.865	37.72177	24.5387	5.053469
79.95178	4298.553	37.17684	24.90582	5.100775
80.00589	4299.31	36.6718	25.29213	5.145921
80.06	4300.134	36.2143	25.69675	5.188684
80.11411	4301.026	35.8083	26.11884	5.228775
80.16821	4301.982	35.45498	26.55756	5.26583
80.22232	4303.006	35.15198	27.01209	5.299428
80.27643	4304.097	34.90103	27.48159	5.329098
80.33054	4305.261	34.70225	27.9652	5.354338
80.38464	4306.503	34.55309	28.46202	5.374631
80.43875	4307.829	34.44772	28.97112	5.389462
80.49286	4309.237	34.37864	29.49148	5.398345
80.54697	4310.726	34.33667	30.02203	5.400799
80.60107	4312.293	34.31501	30.5616	5.396406
80.65518	4313.942	34.3105	31.10894	5.384799
80.70929	4315.667	34.32708	31.66268	5.365685
80.7634	4317.465	34.37136	32.22137	5.338833
80.8175	4319.336	34.45131	32.78343	5.304059
80.87161	4321.285	34.57593	33.3472	5.261217
80.92572	4323.319	34.74809	33.91088	5.210194
80.97983	4325.439	34.95721	34.47255	5.1509
81.03394	4327.643	35.18772	35.03018	5.083292
81.08804	4329.923	35.42263	35.58164	5.007369
81.14215	4332.276	35.65054	36.1247	4.923175
81.19626	4334.699	35.8659	36.65707	4.830813
81.25037	4337.188	36.06456	37.17639	4.730441
81.30447	4339.737	36.24165	37.68028	4.622257
81.35858	4342.335	36.39112	38.16631	4.506524
81.41269	4344.973	36.50908	38.6321	4.383574
81.4668	4347.637	36.59768	39.07528	4.253797
81.5209	4350.323	36.6662	39.49358	4.117664
81.575	4353.028	36.7218	39.88485	3.975714
81.62911	4355.75	36.76609	40.24703	3.828557
81.68322	4358.487	36.79772	40.57821	3.676886
81.73733	4361.241	36.81347	40.87664	3.521464
81.79144	4364.011	36.80658	41.14067	3.363116
81.84554	4366.798	36.77065	41.36882	3.20271
81.89965	4369.598	36.70039	41.55972	3.041148
81.95376	4372.404	36.59307	41.71217	2.879398
82.00787	4375.215	36.44537	41.82512	2.718467
82.06197	4378.029	36.26101	41.89771	2.559438
82.11608	4380.84	36.04763	41.9292	2.403442
82.17019	4383.638	35.81133	41.91907	2.251709
82.2243	4386.414	35.55563	41.86691	2.105575
82.2784	4389.158	35.28534	41.77248	1.966549
82.33251	4391.865	35.00889	41.63566	1.836355
82.38662	4394.528	34.74242	41.45648	1.716961
82.44073	4397.146	34.50594	41.23509	1.61055
82.49483	4399.718	34.31255	40.97186	1.519477
82.54894	4402.26	34.16247	40.66721	1.446038
82.60305	4404.782	34.04869	40.3217	1.392226
82.65716	4407.293	33.96373	39.936	1.359348
82.71127	4409.792	33.90216	39.51088	1.347736
82.76537	4412.273	33.85815	39.04719	1.356574
82.81948	4414.725	33.82676	38.54589	1.384004
82.87359	4417.144	33.80518	38.00797	1.427437
82.9277	4419.526	33.79217	37.43444	1.483925
82.9818	4421.872	33.78629	36.82631	1.550505
83.03591	4424.171	33.78653	36.18459	1.624433
83.09002	4426.418	33.79253	35.5103	1.703284
83.14413	4428.599	33.80877	34.80445	1.784985
83.19823	4430.712	33.83835	34.06804	1.867784
83.25234	4432.759	33.88205	33.30203	1.950235
83.30645	4434.749	33.93962	32.50737	2.031144
83.36056	4436.688	34.00939	31.68498	2.109541
83.41467	4438.585	34.08395	30.83574	2.184627
83.46877	4440.433	34.15438	29.96052	2.255767
83.52288	4442.225	34.21191	29.06015	2.322443
83.57699	4443.948	34.25014	28.13549	2.384273
83.6311	4445.6	34.26356	27.18738	2.441016
83.6852	4447.177	34.25591	26.21664	2.492527
83.73931	4448.685	34.22962	25.22406	2.538844
83.79342	4450.115	34.18652	24.21037	2.580126
83.84753	4451.472	34.12626	23.1763	2.616653
83.90163	4452.753	34.05225	22.12249	2.648816
83.95574	4453.966	33.96481	21.04963	2.677117
84.00985	4455.112	33.86475	19.95835	2.702147
84.06396	4456.2	33.75257	18.84932	2.724556
84.11806	4457.234	33.62773	17.72316	2.745048
84.17217	4458.218	33.48526	16.58051	2.764302
84.22628	4459.15	33.31995	15.42197	2.782997
84.28039	4460.031	33.12342	14.24816	2.801795
84.3345	4460.85	32.88337	13.05967	2.821323
84.3886	4461.596	32.59418	11.85715	2.842161
84.44271	4462.254	32.26064	10.64125	2.86482
84.49682	4462.824	31.88885	9.412649	2.889735
84.55093	4463.306	31.48348	8.172064	2.91724
84.60503	4463.704	31.0539	6.920245	2.947577
84.65914	4464.02	30.6147	5.657969	2.980916
84.71325	4464.263	30.18308	4.386045	3.017374
84.76736	4464.439	29.77206	3.105278	3.057007
84.82146	4464.556	29.39016	1.816472	3.099816
84.87557	4464.616	29.0425	0.5204149	3.145751
84.92968	4464.629	28.72665	-0.782102	3.194719
84.98379	4464.603	28.43294	-2.0903	3.246582
85.0379	4464.543	28.15184	-3.403409	3.301166
85.092	4464.443	27.87642	-4.720692	3.358245
85.14611	4464.291	27.59989	-6.041433	3.417547
85.20022	4464.072	27.31359	-7.364944	3.478752
85.25433	4463.775	27.01092	-8.690544	3.541511
85.30843	4463.393	26.69802	-10.01757	3.605438
85.36254	4462.923	26.39002	-11.34538	3.67013
85.41665	4462.362	26.10441	-12.67332	3.735144
85.47076	4461.706	25.85888	-14.00077	3.799994
85.52486	4460.95	25.6719	-15.32711	3.864147
85.57897	4460.094	25.55098	-16.65171	3.927046
85.63308	4459.144	25.49881	-17.97396	3.988122
85.68719	4458.113	25.51216	-19.29323	4.046817
85.74129	4457.01	25.58167	-20.60892	4.102602
85.7954	4455.839	25.68959	-21.92045	4.154983
85.84951	4454.595	25.8143	-23.22723	4.20352
85.90362	4453.275	25.93199	-24.52866	4.247863
85.95773	4451.875	26.0221	-25.82411	4.28774
86.01183	4450.384	26.06942	-27.11292	4.322973
86.06594	4448.799	26.06346	-28.39436	4.353469
86.12005	4447.118	25.99667	-29.6677	4.379237
86.17416	4445.341	25.8728	-30.93218	4.40039
86.22826	4443.467	25.70642	-32.18702	4.41714
86.28237	4441.49	25.51256	-33.43141	4.429808
86.33648	4439.407	25.30817	-34.66451	4.438786
86.39059	4437.214	25.10958	-35.88541	4.444531
86.44469	4434.918	24.92928	-37.09316	4.447544
86.4988	4432.535	24.76545	-38.28677	4.448358
86.55291	4430.083	24.61063	-39.46525	4.447514
86.60702	4427.58	24.45675	-40.62756	4.445562
86.66113	4425.035	24.29568	-41.77267	4.443073
86.71523	4422.463	24.11637	-42.89953	4.440612
86.76934	4419.868	23.90387	-44.00706	4.438727
86.82345	4417.246	23.64646	-45.09418	4.437934
86.87756	4414.594	23.33901	-46.15982	4.438745
86.93166	4411.905	22.97987	-47.20287	4.441601
86.98577	4409.171	22.57503	-48.22232	4.446911
87.03988	4406.384	22.13869	-49.21718	4.455025
87.09399	4403.529	21.6928	-50.18659	4.466234
87.14809	4400.601	21.25792	-51.12978	4.480762
87.2022	4397.589	20.84531	-52.04605	4.498759
87.25631	4394.495	20.45689	-52.93478	4.520302
87.31042	4391.315	20.09329	-53.79546	4.545333
87.36452	4388.055	19.75027	-54.62762	4.573737
87.41863	4384.721	19.4227	-55.43093	4.605293
87.47274	4381.328	19.10413	-56.20515	4.639689
87.52685	4377.878	18.79276	-56.95016	4.676511
87.58096	4374.382	18.4811	-57.66598	4.715274
87.63506	4370.839	18.16302	-58.35269	4.755409
87.68917	4367.255	17.83585	-59.01051	4.796288
87.74328	4363.629	17.50786	-59.63972	4.837236
87.79739	4359.968	17.18731	-60.24076	4.877573
87.85149	4356.272	16.88001	-60.81413	4.916633
87.9056	4352.551	16.58561	-61.36038	4.953792
87.95971	4348.803	16.30439	-61.88018	4.988468
88.01382	4345.031	16.03856	-62.37421	5.020141
88.06792	4341.231	15.79164	-62.84319	5.048371
88.12203	4337.409	15.56429	-63.28794	5.072831
88.17614	4333.564	15.35664	-63.70935	5.093275
88.23025	4329.71	15.1633	-64.10837	5.109568
88.28436	4325.852	14.97917	-64.48604	5.121659
88.33846	4321.995	14.7959	-64.84341	5.129574
88.39257	4318.134	14.60568	-65.18165	5.133421
88.44668	4314.27	14.40339	-65.50188	5.13335
88.50079	4310.403	14.18646	-65.80533	5.1296
88.55489	4306.537	13.95666	-66.09319	5.122419
88.60899	4302.669	13.7169	-66.36668	5.112094
88.6631	4298.803	13.47395	-66.62697	5.098937
88.71721	4294.937	13.23282	-66.87517	5.083259
88.77132	4291.075	12.99428	-67.11235	5.065372
88.82542	4287.223	12.75879	-67.33953	5.045545
88.87953	4283.391	12.52284	-67.55771	5.023987
88.93364	4279.583	12.27721	-67.76785	5.000905
88.98775	4275.8	12.01251	-67.97091	4.97647
89.04185	4272.042	11.72656	-68.16788	4.950827
89.09596	4268.31	11.42236	-68.35974	4.924101
89.15007	4264.603	11.10455	-68.54748	4.896397
89.20418	4260.924	10.77377	-68.73206	4.86779
89.25829	4257.274	10.42996	-68.91445	4.838326
89.31239	4253.651	10.07928	-69.0956	4.808017
89.3665	4250.047	9.731865	-69.27643	4.776853
89.42061	4246.463	9.394272	-69.45784	4.74482
89.47472	4242.893	9.073223	-69.6407	4.711879
89.52882	4239.339	8.773031	-69.82584	4.67802
89.58293	4235.796	8.490467	-70.01405	4.643211
89.63704	4232.262	8.217716	-70.20602	4.607417
89.69115	4228.731	7.950721	-70.40237	4.570588
89.74525	4225.202	7.694051	-70.60368	4.532671
89.79936	4221.671	7.453886	-70.81039	4.493603
89.85347	4218.14	7.228437	-71.02288	4.453358
89.90758	4214.606	7.009518	-71.24144	4.411934
89.96169	4211.067	6.785632	-71.46625	4.369381
90.01579	4207.515	6.553332	-71.6974	4.325777
90.0699	4203.94	6.30971	-71.93496	4.281244
90.12401	4200.337	6.058223	-72.1789	4.235952
90.17812	4196.702	5.80759	-72.42918	4.190106
90.23222	4193.03	5.568849	-72.68571	4.143939
90.28633	4189.317	5.348307	-72.94843	4.097698
90.34044	4185.56	5.1408	-73.21727	4.051647
90.39455	4181.757	4.938437	-73.49214	4.00603
90.44865	4177.914	4.733196	-73.77298	3.961062
90.50276	4174.037	4.520726	-74.05968	3.916951
90.55687	4170.14	4.297449	-74.3521	3.873874
90.61098	4166.234	4.057206	-74.65005	3.831996
90.66508	4162.324	3.793156	-74.95327	3.791479
90.71919	4158.4	3.5045	-75.26143	3.75246
90.7733	4154.452	3.195017	-75.57414	3.715046
90.82741	4150.463	2.875519	-75.89098	3.679292
90.88152	4146.428	2.559174	-76.21142	3.645243
90.93562	4142.339	2.260165	-76.53491	3.612929
90.98973	4138.199	1.985885	-76.8608	3.582365
91.04384	4134.01	1.743063	-77.18842	3.553549
91.09795	4129.777	1.534295	-77.51698	3.526471
91.15205	4125.499	1.360417	-77.8457	3.501098
91.20616	4121.179	1.21676	-78.17371	3.477362
91.26027	4116.818	1.098616	-78.50014	3.455176
91.31438	4112.417	1.003948	-78.8241	3.434413
91.36848	4107.968	0.9333954	-79.14474	3.414927
91.42259	4103.468	0.887554	-79.46127	3.396582
91.4767	4098.914	0.8670819	-79.77296	3.379243
91.53081	4094.316	0.868117	-80.07912	3.362777
91.58492	4089.673	0.8906999	-80.37901	3.347086
91.63902	4084.99	0.9356847	-80.67189	3.332074
91.69313	4080.265	1.005877	-80.95696	3.317693
91.74724	4075.504	1.098331	-81.23343	3.303858
91.80135	4070.71	1.201659	-81.50051	3.290528
91.85545	4065.903	1.298869	-81.75745	3.277684
91.90956	4061.093	1.379231	-82.00348	3.265341
91.96367	4056.299	1.43543	-82.23792	3.253537
92.01778	4051.527	1.464265	-82.46007	3.24233
92.07188	4046.789	1.464396	-82.66932	3.231752
92.12599	4042.085	1.439205	-82.86509	3.221864
92.1801	4037.423	1.396796	-83.04687	3.212734
92.23421	4032.795	1.354314	-83.2142	3.204439
92.28831	4028.195	1.332203	-83.36677	3.197077
92.34242	4023.61	1.350373	-83.50433	3.19078
92.39653	4019.035	1.422996	-83.62651	3.186078
92.45064	4014.455	1.549606	-83.61514	3.194142
92.50475	4009.863	1.713365	-83.5948	3.201671
92.55885	4005.254	1.893389	-83.56854	3.209083
92.61296	4000.634	2.077324	-83.53873	3.216649
92.66707	3996.003	2.254875	-83.50694	3.224581
92.72118	3991.371	2.4211	-83.47404	3.23304
92.77528	3986.743	2.578595	-83.44045	3.242134
92.82939	3982.128	2.735886	-83.4063	3.251925
92.8835	3977.523	2.899382	-83.37156	3.262454
92.93761	3972.924	3.07606	-83.33612	3.273734
92.99171	3968.319	3.268217	-83.29987	3.28576
93.04582	3963.701	3.477611	-83.26267	3.298523
93.09993	3959.059	3.702635	-83.2244	3.312012
93.15404	3954.393	3.940959	-83.18494	3.326191
93.20815	3949.707	4.189568	-83.14421	3.341046
93.26225	3945.015	4.445322	-83.10211	3.356538
93.31636	3940.318	4.698421	-83.05858	3.37263
93.37047	3935.623	4.940147	-83.01355	3.389305
93.42458	3930.932	5.16674	-82.96697	3.406509
93.47868	3926.254	5.379884	-82.91881	3.424217
93.53279	3921.597	5.581496	-82.869	3.442392
93.5869	3916.981	5.776484	-82.81754	3.460999
93.64101	3912.42	5.972329	-82.76437	3.479985
93.69511	3907.915	6.17617	-82.70949	3.499323
93.74922	3903.469	6.389057	-82.65287	3.518958
93.80333	3899.084	6.607366	-82.5945	3.538866
93.85744	3894.743	6.823449	-82.53437	3.559011
93.91154	3890.426	7.028176	-82.47249	3.579355
93.96565	3886.096	7.213669	-82.40885	3.599875
94.01976	3881.734	7.378735	-82.34344	3.620546
94.07387	3877.339	7.524755	-82.27628	3.641342
94.12798	3872.914	7.616755	-82.20736	3.662248
94.18208	3868.547	7.722824	-82.13668	3.683232
94.23619	3864.233	7.838803	-82.06426	3.704285
94.2903	3859.957	7.960999	-81.9901	3.725384
94.34441	3855.709	8.087081	-81.91425	3.746516
94.39851	3851.48	8.21516	-81.83671	3.767669
94.45262	3847.265	8.343031	-81.75751	3.788826
94.50673	3843.059	8.469862	-81.6767	3.809979
94.56084	3838.856	8.594538	-81.59429	3.831111
94.61494	3834.655	8.716784	-81.51034	3.852218
94.66905	3830.451	8.836404	-81.42488	3.873286
94.72316	3826.243	8.953513	-81.33797	3.894315
94.77727	3822.028	9.068464	-81.24963	3.915293
94.83138	3817.805	9.181548	-81.15992	3.936213
94.88548	3813.576	9.293075	-81.06889	3.957077
94.93959	3809.341	9.403563	-80.97659	3.977885
94.9937	3805.106	9.513441	-80.88307	3.998621
