T[Â°C]	350nm [counts / mm]	S.D.	First derivative	S.D. of first derivative
19.99988	6918.278	31.63517	-101.3966	6.620887
20.05387	6912.771	31.24556	-101.3219	6.459554
20.10785	6907.268	30.85406	-101.2468	6.298956
20.16184	6901.766	30.46149	-101.1713	6.139118
20.21583	6896.267	30.06861	-101.0953	5.980075
20.26981	6890.769	29.67763	-101.0189	5.821868
20.3238	6885.271	29.29014	-100.9421	5.664538
20.37779	6879.774	28.90778	-100.8649	5.508115
20.43177	6874.276	28.53268	-100.7872	5.35265
20.48576	6868.777	28.16648	-100.7092	5.198181
20.53975	6863.275	27.80951	-100.6307	5.044751
20.59374	6857.772	27.4627	-100.5519	4.892412
20.64772	6852.269	27.12468	-100.4727	4.741205
20.70171	6846.767	26.79273	-100.3932	4.591181
20.7557	6841.268	26.46297	-100.3133	4.442383
20.80968	6835.777	26.12768	-100.2332	4.294865
20.86367	6830.298	25.77549	-100.1527	4.148665
20.91766	6824.845	25.38593	-100.0721	4.003838
20.97165	6819.438	24.9288	-99.99117	3.860433
21.02563	6814.126	24.5916	-99.91007	3.718495
21.07962	6808.829	24.29499	-99.8288	3.578068
21.13361	6803.531	24.05676	-99.7474	3.439203
21.1876	6798.22	23.88503	-99.66589	3.301944
21.24158	6792.884	23.78177	-99.58431	3.166318
21.29557	6787.508	23.7435	-99.5027	3.032368
21.34956	6782.088	23.76243	-99.42109	2.90011
21.40354	6776.625	23.82793	-99.33952	2.769567
21.45753	6771.135	23.9275	-99.25802	2.640743
21.51152	6765.636	24.04417	-99.17664	2.513655
21.5655	6760.144	24.16295	-99.09541	2.388289
21.61949	6754.668	24.27969	-99.01436	2.264637
21.67348	6749.223	24.40468	-98.93354	2.142689
21.72747	6743.807	24.55275	-98.85297	2.022427
21.78145	6738.415	24.7353	-98.77268	1.903836
21.83544	6733.041	24.96187	-98.6927	1.786895
21.88943	6727.679	25.23881	-98.61303	1.671602
21.94341	6722.321	25.56735	-98.53371	1.557965
21.9974	6716.961	25.94677	-98.45471	1.446012
22.05139	6711.592	26.36815	-98.37607	1.335824
22.10538	6706.211	26.81104	-98.29773	1.227561
22.15936	6700.821	27.25531	-98.21967	1.121546
22.21335	6695.427	27.68137	-98.14182	1.018372
22.26734	6690.034	28.07599	-98.06406	0.9191196
22.32132	6684.645	28.43276	-97.98621	0.8257324
22.37531	6679.267	28.74994	-97.90794	0.7416111
22.4293	6673.906	29.02629	-97.82883	0.6723926
22.48329	6668.569	29.2633	-97.74827	0.6263972
22.53727	6663.268	29.46419	-97.66554	0.6132036
22.59126	6658.007	29.63377	-97.57998	0.6392134
22.64525	6652.787	29.77653	-97.50833	0.7115346
22.69923	6647.602	29.89785	-97.4383	0.7859158
22.75322	6642.451	30.00012	-97.3699	0.8600985
22.80721	6637.332	30.08213	-97.30312	0.9326853
22.86119	6632.237	30.13342	-97.23798	1.002866
22.91518	6627.153	30.1372	-97.17448	1.070253
22.96917	6622.071	30.07486	-97.11265	1.134752
23.02316	6616.98	29.93483	-97.05248	1.196489
23.07714	6611.874	29.71263	-96.99398	1.255744
23.13113	6606.746	29.40664	-96.93715	1.312857
23.18512	6601.598	29.01831	-96.88194	1.368162
23.23911	6596.428	28.55711	-96.82833	1.421904
23.29309	6591.233	28.04263	-96.77625	1.474247
23.34708	6586.022	27.49945	-96.72562	1.525223
23.40107	6580.806	26.96023	-96.67636	1.57475
23.45505	6575.6	26.45373	-96.62834	1.622625
23.50904	6570.415	25.99328	-96.58145	1.668508
23.56303	6565.258	25.57919	-96.53559	1.711933
23.61702	6560.134	25.20892	-96.49067	1.752373
23.671	6555.045	24.87982	-96.44666	1.789233
23.72499	6549.987	24.59936	-96.40351	1.821918
23.77898	6544.952	24.37353	-96.36123	1.849802
23.83296	6539.923	24.1963	-96.31978	1.872291
23.88695	6534.886	24.05127	-96.27917	1.888835
23.94094	6529.832	23.92391	-96.23944	1.898959
23.99492	6524.751	23.80166	-96.20065	1.902302
24.04891	6519.633	23.67081	-96.16287	1.898627
24.1029	6514.477	23.52497	-96.12621	1.887787
24.15689	6509.284	23.36064	-96.09076	1.869763
24.21087	6504.06	23.17319	-96.0566	1.844625
24.26486	6498.812	22.96626	-96.02387	1.812534
24.31885	6493.554	22.75059	-95.99268	1.77371
24.37284	6488.293	22.53748	-95.96316	1.728453
24.42682	6483.037	22.33171	-95.93542	1.67713
24.48081	6477.785	22.13281	-95.90955	1.620182
24.5348	6472.534	21.93606	-95.88553	1.558147
24.58878	6467.277	21.74057	-95.86329	1.491662
24.64277	6462.01	21.55159	-95.84271	1.421462
24.69676	6456.73	21.38324	-95.8236	1.348408
24.75075	6451.439	21.24615	-95.80573	1.27349
24.80473	6446.138	21.14753	-95.78882	1.197815
24.85872	6440.823	21.09027	-95.77254	1.122568
24.91271	6435.49	21.06717	-95.75661	1.048988
24.96669	6430.142	21.06783	-95.74072	0.9783281
25.02068	6424.795	21.08543	-95.72459	0.9118488
25.07467	6419.47	21.1151	-95.70802	0.8508452
25.12865	6414.183	21.14856	-95.69086	0.7965627
25.18264	6408.944	21.17961	-95.67297	0.7501446
25.23663	6403.748	21.20337	-95.65427	0.7125069
25.29062	6398.586	21.21453	-95.6347	0.6842231
25.3446	6393.452	21.21666	-95.6142	0.6654144
25.39859	6388.339	21.22181	-95.59271	0.6557323
25.45258	6383.24	21.25134	-95.57015	0.6544297
25.50657	6378.144	21.32623	-95.5464	0.6604223
25.56055	6373.045	21.45699	-95.52128	0.6724601
25.61454	6367.94	21.64166	-95.49454	0.6892738
25.66853	6362.829	21.87371	-95.46596	0.709637
25.72251	6357.716	22.15334	-95.43521	0.7325026
25.7765	6352.603	22.479	-95.402	0.7570031
25.83049	6347.489	22.83951	-95.36603	0.782465
25.88447	6342.376	23.21661	-95.32704	0.8084115
25.93846	6337.271	23.58624	-95.28487	0.8345454
25.99245	6332.177	23.9203	-95.23944	0.8606932
26.04644	6327.096	24.20026	-95.19072	0.8868076
26.10042	6322.028	24.421	-95.13879	0.9129165
26.15441	6316.969	24.58022	-95.08382	0.9390815
26.2084	6311.906	24.67809	-95.02601	0.9653888
26.26238	6306.832	24.72013	-94.96569	0.9919515
26.31637	6301.745	24.72054	-94.90319	1.0189
26.37036	6296.648	24.69777	-94.83893	1.046418
26.42435	6291.545	24.67466	-94.77332	1.074678
26.47833	6286.438	24.66652	-94.70682	1.103858
26.53232	6281.323	24.67796	-94.63986	1.134079
26.58631	6276.201	24.70089	-94.57281	1.165382
26.6403	6271.073	24.72988	-94.50596	1.197719
26.69428	6265.947	24.76368	-94.43954	1.230936
26.74827	6260.832	24.79554	-94.37376	1.264752
26.80226	6255.732	24.81917	-94.30874	1.2988
26.85624	6250.644	24.82439	-94.24461	1.332644
26.91023	6245.554	24.80178	-94.18146	1.365806
26.96422	6240.458	24.74293	-94.11935	1.397824
27.0182	6235.353	24.64138	-94.0584	1.428265
27.07219	6230.24	24.49225	-93.99869	1.456798
27.12618	6225.127	24.29645	-93.94033	1.483201
27.18017	6220.021	24.0615	-93.88347	1.507385
27.23415	6214.921	23.79888	-93.82826	1.529361
27.28814	6209.824	23.52386	-93.77484	1.54923
27.34213	6204.726	23.24785	-93.72336	1.567098
27.39611	6199.628	22.98098	-93.67393	1.583086
27.4501	6194.527	22.7355	-93.62666	1.597238
27.50409	6189.421	22.52094	-93.58162	1.609518
27.55807	6184.309	22.34272	-93.53884	1.619802
27.61206	6179.193	22.19711	-93.49828	1.627894
27.66605	6174.073	22.07193	-93.45979	1.633525
27.72004	6168.952	21.95243	-93.42315	1.636441
27.77402	6163.834	21.82537	-93.38801	1.636381
27.82801	6158.728	21.68548	-93.35403	1.633158
27.882	6153.637	21.53296	-93.32088	1.626655
27.93599	6148.564	21.36863	-93.2882	1.616891
27.98997	6143.511	21.18719	-93.2557	1.60399
28.04396	6138.484	20.97986	-93.22311	1.588173
28.09795	6133.493	20.74411	-93.19019	1.569749
28.15193	6128.539	20.4855	-93.15678	1.549136
28.20592	6123.617	20.20828	-93.12277	1.526847
28.25991	6118.72	19.91897	-93.08811	1.503496
28.31389	6113.839	19.62767	-93.0528	1.479729
28.36788	6108.964	19.34587	-93.01689	1.456128
28.42187	6104.083	19.08652	-92.98048	1.433162
28.47586	6099.187	18.86043	-92.94369	1.411166
28.52984	6094.267	18.6762	-92.90668	1.390259
28.58383	6089.323	18.53721	-92.86963	1.370391
28.63782	6084.36	18.44628	-92.83266	1.351349
28.6918	6079.386	18.39958	-92.79589	1.332788
28.74579	6074.411	18.38432	-92.75948	1.314297
28.79978	6069.438	18.38112	-92.7235	1.295447
28.85377	6064.468	18.37429	-92.6881	1.275844
28.90775	6059.505	18.3558	-92.6534	1.255215
28.96174	6054.549	18.32578	-92.61954	1.233395
29.01573	6049.588	18.29227	-92.58662	1.210394
29.06972	6044.618	18.26681	-92.55473	1.186356
29.1237	6039.639	18.26455	-92.52394	1.161581
29.17769	6034.66	18.29821	-92.49437	1.136478
29.23168	6029.683	18.37455	-92.46608	1.111578
29.28566	6024.701	18.49751	-92.43915	1.08746
29.33965	6019.707	18.66308	-92.41362	1.064751
29.39364	6014.695	18.86583	-92.38952	1.044051
29.44762	6009.663	19.09627	-92.36689	1.025892
29.50161	6004.606	19.33971	-92.34575	1.010664
29.5556	5999.526	19.57949	-92.32618	0.9985833
29.60959	5994.429	19.80158	-92.30824	0.9896666
29.66357	5989.321	19.99315	-92.292	0.9837403
29.71756	5984.209	20.14645	-92.27746	0.9804793
29.77155	5979.111	20.25717	-92.26459	0.9794037
29.82553	5974.043	20.32331	-92.2533	0.9799278
29.87952	5969.018	20.34977	-92.24343	0.9814188
29.93351	5964.03	20.34147	-92.23482	0.9832393
29.9875	5959.071	20.30807	-92.22724	0.9848383
30.04148	5954.134	20.26361	-92.22042	0.9857737
30.09547	5949.207	20.22265	-92.21407	0.9857283
30.14946	5944.282	20.19214	-92.20789	0.984589
30.20344	5939.356	20.17314	-92.20154	0.9824159
30.25743	5934.434	20.15819	-92.19471	0.9794544
30.31142	5929.517	20.13581	-92.18711	0.9761199
30.36541	5924.604	20.09077	-92.17847	0.9729242
30.41939	5919.687	20.00598	-92.16852	0.9704422
30.47338	5914.752	19.86861	-92.15705	0.9691995
30.52737	5909.79	19.67328	-92.14389	0.9696155
30.58135	5904.798	19.42894	-92.12888	0.971922
30.63534	5899.779	19.15696	-92.11196	0.9761721
30.68933	5894.742	18.88128	-92.09306	0.9821737
30.74332	5889.7	18.61782	-92.0722	0.9895216
30.7973	5884.667	18.37622	-92.04939	0.9976533
30.85129	5879.653	18.16311	-92.0247	1.005908
30.90528	5874.668	17.98306	-91.99825	1.013611
30.95926	5869.715	17.83436	-91.9701	1.020125
31.01325	5864.789	17.70976	-91.94035	1.024877
31.06724	5859.88	17.60493	-91.90907	1.027423
31.12123	5854.981	17.51617	-91.87636	1.027429
31.17521	5850.084	17.43633	-91.84231	1.024687
31.2292	5845.184	17.35773	-91.80705	1.019097
31.28319	5840.273	17.27385	-91.77069	1.010659
31.33717	5835.349	17.17864	-91.73334	0.9994916
31.39116	5830.406	17.071	-91.69508	0.9857838
31.44515	5825.441	16.9504	-91.65606	0.9697978
31.49914	5820.457	16.81705	-91.61638	0.9517988
31.55312	5815.459	16.66706	-91.57621	0.9320281
31.60711	5810.449	16.49684	-91.53571	0.9106894
31.6611	5805.428	16.30718	-91.49511	0.8879391
31.71508	5800.397	16.10793	-91.45464	0.8638873
31.76907	5795.368	15.9162	-91.41449	0.838618
31.82306	5790.352	15.74512	-91.3749	0.8121708
31.87704	5785.359	15.59976	-91.33601	0.7845508
31.93103	5780.397	15.48115	-91.29798	0.7557524
31.98502	5775.472	15.39117	-91.26087	0.7257675
32.03901	5770.579	15.33436	-91.22472	0.6946392
32.09299	5765.705	15.32112	-91.18948	0.6624727
32.14698	5760.828	15.35758	-91.15509	0.6294606
32.20097	5755.93	15.44005	-91.12148	0.5958863
32.25496	5751.004	15.55466	-91.08853	0.5621089
32.30894	5746.048	15.68591	-91.0562	0.5285712
32.36293	5741.07	15.82286	-91.0244	0.4957762
32.41692	5736.082	15.96075	-90.99307	0.4642921
32.47091	5731.096	16.09016	-90.96216	0.4347676
32.52489	5726.125	16.20179	-90.93161	0.4079135
32.57888	5721.174	16.29154	-90.90141	0.3844652
32.63287	5716.247	16.3617	-90.87162	0.3651909
32.68685	5711.346	16.41835	-90.84229	0.3508457
32.74084	5706.476	16.46573	-90.81353	0.3421042
32.79483	5701.637	16.5125	-90.78544	0.3395523
32.84881	5696.818	16.57149	-90.75809	0.3436159
32.9028	5692.01	16.65115	-90.73153	0.3545085
32.95679	5687.205	16.7542	-90.70573	0.3722071
33.01078	5682.398	16.87494	-90.68063	0.3964862
33.06476	5677.583	17.00241	-90.65615	0.4269047
33.11875	5672.757	17.12271	-90.63219	0.4629132
33.17274	5667.917	17.22702	-90.60868	0.503844
33.22672	5663.061	17.31628	-90.58553	0.5489647
33.28071	5658.194	17.39653	-90.56267	0.5974929
33.3347	5653.317	17.4726	-90.54006	0.6486096
33.38868	5648.428	17.54127	-90.51769	0.701508
33.44267	5643.533	17.59278	-90.49553	0.7554022
33.49666	5638.64	17.61587	-90.47356	0.8095586
33.55065	5633.762	17.6051	-90.45178	0.8632942
33.60463	5628.91	17.5579	-90.4302	0.915992
33.65862	5624.083	17.47702	-90.40881	0.9670796
33.71261	5619.277	17.37181	-90.38761	1.01603
33.76659	5614.481	17.25682	-90.36656	1.062349
33.82058	5609.678	17.1434	-90.34563	1.10556
33.87457	5604.858	17.03749	-90.32471	1.145189
33.92855	5600.018	16.93918	-90.3037	1.180751
33.98254	5595.154	16.84655	-90.28242	1.211747
34.03653	5590.266	16.76293	-90.26066	1.237685
34.09052	5585.36	16.69837	-90.23817	1.2581
34.1445	5580.443	16.66334	-90.2147	1.272571
34.19849	5575.523	16.65965	-90.18998	1.28078
34.25248	5570.607	16.67557	-90.16373	1.282522
34.30647	5565.694	16.68981	-90.13578	1.277768
34.36045	5560.785	16.687	-90.10592	1.266648
34.41444	5555.878	16.65867	-90.07396	1.249471
34.46843	5550.974	16.60571	-90.03975	1.226755
34.52242	5546.073	16.53046	-90.00311	1.199197
34.5764	5541.184	16.43583	-89.9639	1.167655
34.63039	5536.311	16.32573	-89.92203	1.133122
34.68438	5531.456	16.20067	-89.87739	1.096663
34.73836	5526.615	16.06201	-89.82992	1.059379
34.79235	5521.779	15.91356	-89.77956	1.022337
34.84634	5516.937	15.76064	-89.72625	0.9865243
34.90033	5512.079	15.61138	-89.6699	0.9528078
34.95431	5507.201	15.47382	-89.61041	0.9218982
35.0083	5502.307	15.35335	-89.54769	0.8942809
35.06229	5497.399	15.24557	-89.48167	0.8702209
35.11627	5492.478	15.14012	-89.41232	0.8497418
35.17026	5487.547	15.02454	-89.33961	0.8327169
35.22425	5482.61	14.89421	-89.2636	0.8188714
35.27823	5477.678	14.75082	-89.18439	0.8078481
35.33222	5472.755	14.59763	-89.10212	0.7992965
35.38621	5467.85	14.43438	-89.01691	0.7928964
35.4402	5462.967	14.25625	-88.92896	0.7884318
35.49418	5458.106	14.06845	-88.83843	0.7857894
35.54817	5453.264	13.87702	-88.74553	0.7849739
35.60216	5448.434	13.69024	-88.65046	0.7861036
35.65614	5443.613	13.5155	-88.55342	0.7893087
35.71013	5438.795	13.36016	-88.45464	0.7947701
35.76412	5433.971	13.23568	-88.35435	0.8026329
35.8181	5429.141	13.14953	-88.25279	0.8130226
35.87209	5424.305	13.10624	-88.15022	0.825965
35.92608	5419.466	13.10647	-88.04687	0.8414119
35.98007	5414.628	13.14573	-87.94296	0.8592076
36.03405	5409.796	13.21507	-87.83872	0.8791289
36.08804	5404.975	13.30805	-87.73441	0.9008897
36.14203	5400.169	13.41703	-87.63025	0.9241509
36.19601	5395.391	13.54019	-87.52645	0.9485605
36.25	5390.651	13.67871	-87.42323	0.9737534
36.30399	5385.955	13.82896	-87.32079	0.9993979
36.35798	5381.299	13.98978	-87.21935	1.025177
36.41196	5376.671	14.16629	-87.1191	1.050814
36.46595	5372.057	14.36329	-87.02022	1.076138
36.51994	5367.449	14.58228	-86.92287	1.10106
36.57393	5362.838	14.81582	-86.82722	1.125608
36.62791	5358.223	15.04695	-86.73343	1.149927
36.6819	5353.605	15.25993	-86.64162	1.174219
36.73589	5348.989	15.4405	-86.55196	1.198758
36.78988	5344.374	15.57748	-86.46457	1.223782
36.84386	5339.756	15.66553	-86.37961	1.249523
36.89785	5335.135	15.70779	-86.29721	1.276148
36.95184	5330.517	15.71047	-86.21754	1.303771
37.00582	5325.913	15.67589	-86.14078	1.332374
37.05981	5321.336	15.60188	-86.06714	1.361848
37.1138	5316.792	15.48759	-85.99687	1.391924
37.16778	5312.276	15.33949	-85.93022	1.422246
37.22177	5307.78	15.16496	-85.86739	1.452377
37.27576	5303.293	14.97151	-85.80858	1.481839
37.32975	5298.805	14.76309	-85.75393	1.510154
37.38373	5294.313	14.54227	-85.70352	1.536874
37.43772	5289.815	14.31393	-85.65742	1.561611
37.49171	5285.312	14.08267	-85.61564	1.584041
37.54569	5280.798	13.84802	-85.57816	1.603913
37.59968	5276.271	13.60977	-85.54491	1.621064
37.65367	5271.728	13.36724	-85.5158	1.635404
37.70765	5267.166	13.11972	-85.49068	1.646927
37.76164	5262.583	12.86811	-85.46939	1.655692
37.81563	5257.984	12.61165	-85.45177	1.661772
37.86962	5253.369	12.35451	-85.43764	1.665268
37.9236	5248.744	12.105	-85.42683	1.666254
37.97759	5244.12	11.87193	-85.41915	1.664762
38.03158	5239.507	11.66052	-85.41443	1.660783
38.08556	5234.908	11.4706	-85.41246	1.65423
38.13955	5230.328	11.30221	-85.41303	1.644944
38.19354	5225.769	11.15989	-85.41591	1.632724
38.24752	5221.223	11.04914	-85.42082	1.617312
38.30151	5216.676	10.97398	-85.42745	1.598444
38.3555	5212.115	10.93417	-85.43546	1.575818
38.40949	5207.528	10.9249	-85.44446	1.549161
38.46347	5202.918	10.94075	-85.45402	1.518241
38.51746	5198.285	10.97669	-85.46371	1.482886
38.57145	5193.632	11.02308	-85.47307	1.443019
38.62543	5188.966	11.0672	-85.48162	1.398681
38.67942	5184.293	11.09544	-85.4889	1.35009
38.73341	5179.623	11.09263	-85.49445	1.297595
38.7874	5174.96	11.04149	-85.49785	1.241683
38.84138	5170.304	10.9323	-85.49866	1.182947
38.89537	5165.657	10.76745	-85.49651	1.122073
38.94936	5161.023	10.55881	-85.49113	1.059821
39.00335	5156.406	10.32311	-85.48224	0.9969943
39.05733	5151.801	10.08045	-85.46971	0.9344202
39.11132	5147.201	9.857071	-85.45345	0.8729116
39.16531	5142.597	9.673845	-85.43341	0.8132679
39.2193	5137.979	9.542612	-85.40962	0.7562468
39.27328	5133.34	9.468596	-85.38209	0.7025738
39.32727	5128.675	9.45619	-85.35086	0.6529343
39.38126	5123.979	9.499877	-85.31596	0.6079561
39.43524	5119.251	9.592961	-85.27744	0.5682132
39.48923	5114.501	9.723332	-85.23537	0.5341449
39.54322	5109.738	9.87484	-85.18984	0.5059841
39.5972	5104.974	10.02773	-85.14097	0.4837146
39.65119	5100.219	10.16143	-85.08888	0.467021
39.70518	5095.484	10.26484	-85.03374	0.4553413
39.75917	5090.777	10.33555	-84.97574	0.4479173
39.81315	5086.1	10.37522	-84.91508	0.4438713
39.86714	5081.449	10.39273	-84.85204	0.4423007
39.92113	5076.818	10.40157	-84.78693	0.442351
39.97511	5072.198	10.41296	-84.7201	0.4432981
40.0291	5067.579	10.43526	-84.65193	0.444576
40.08309	5062.956	10.47462	-84.58284	0.4458059
40.13707	5058.328	10.53415	-84.51318	0.4468066
40.19106	5053.695	10.61931	-84.44337	0.4476533
40.24505	5049.063	10.72887	-84.37378	0.4486959
40.29904	5044.438	10.85343	-84.30479	0.4505082
40.35302	5039.827	10.98638	-84.23681	0.4538566
40.40701	5035.229	11.12043	-84.1702	0.4595861
40.461	5030.646	11.24652	-84.10532	0.4685033
40.51498	5026.075	11.35813	-84.0425	0.4812849
40.56897	5021.524	11.45398	-83.98206	0.4983198
40.62296	5016.99	11.53765	-83.92426	0.5197129
40.67694	5012.479	11.6113	-83.86928	0.5452677
40.73093	5007.993	11.67316	-83.81729	0.5745746
40.78492	5003.531	11.71438	-83.76839	0.6070731
40.83891	4999.085	11.7273	-83.7226	0.6421586
40.89289	4994.651	11.70965	-83.67992	0.6792203
40.94688	4990.227	11.66023	-83.64036	0.7177508
41.00087	4985.813	11.57692	-83.6039	0.7573317
41.05486	4981.408	11.4596	-83.57053	0.7976773
41.10884	4977.015	11.31408	-83.54022	0.8385915
41.16283	4972.63	11.13967	-83.51296	0.8799427
41.21682	4968.256	10.93426	-83.48872	0.921604
41.27081	4963.892	10.70296	-83.46743	0.9634454
41.32479	4959.54	10.44993	-83.44901	1.005294
41.37878	4955.199	10.18059	-83.43335	1.046879
41.43277	4950.866	9.903664	-83.4203	1.087868
41.48676	4946.536	9.633858	-83.40968	1.127805
41.54074	4942.202	9.380921	-83.40131	1.166149
41.59473	4937.857	9.148881	-83.39494	1.202278
41.64872	4933.499	8.940172	-83.39033	1.235504
41.7027	4929.123	8.758805	-83.38721	1.265099
41.75669	4924.729	8.611261	-83.38531	1.290335
41.81068	4920.314	8.506523	-83.38434	1.310547
41.86466	4915.888	8.447316	-83.38403	1.325172
41.91865	4911.457	8.427047	-83.38408	1.333761
41.97264	4907.031	8.432813	-83.38421	1.336016
42.02663	4902.621	8.453436	-83.38414	1.331816
42.08061	4898.23	8.481424	-83.3836	1.321181
42.1346	4893.848	8.517102	-83.38231	1.304281
42.18859	4889.461	8.563118	-83.38003	1.281402
42.24257	4885.053	8.620799	-83.37654	1.25297
42.29656	4880.614	8.691813	-83.37164	1.219476
42.35055	4876.137	8.772651	-83.36517	1.181484
42.40453	4871.619	8.855773	-83.35696	1.139564
42.45852	4867.062	8.927006	-83.34686	1.094325
42.51251	4862.469	8.972254	-83.33473	1.046342
42.5665	4857.841	8.9812	-83.32039	0.9962437
42.62048	4853.182	8.94714	-83.30367	0.9446418
42.67447	4848.499	8.866758	-83.2844	0.8922001
42.72846	4843.803	8.734606	-83.2624	0.8396164
42.78244	4839.107	8.543063	-83.23746	0.7876172
42.83643	4834.417	8.289338	-83.20941	0.7369531
42.89042	4829.737	7.980271	-83.17803	0.6884156
42.9444	4825.064	7.632977	-83.14312	0.642783
42.99839	4820.401	7.271126	-83.10444	0.6008092
43.05238	4815.748	6.918707	-83.06178	0.5631198
43.10637	4811.103	6.597806	-83.01489	0.5301183
43.16035	4806.462	6.322543	-82.96355	0.5018993
43.21434	4801.818	6.101791	-82.90751	0.4781385
43.26833	4797.166	5.936113	-82.84656	0.4581394
43.32232	4792.508	5.820068	-82.78051	0.4408392
43.3763	4787.846	5.748871	-82.70923	0.4249913
43.43029	4783.185	5.71801	-82.63261	0.4093087
43.48428	4778.526	5.718495	-82.55062	0.3925893
43.53827	4773.879	5.739163	-82.46328	0.3738351
43.59225	4769.251	5.772621	-82.37068	0.3523648
43.64624	4764.651	5.815722	-82.27297	0.327852
43.70023	4760.085	5.871595	-82.17034	0.3004592
43.75421	4755.557	5.952116	-82.06304	0.2709635
43.8082	4751.067	6.07164	-81.95138	0.2410699
43.86219	4746.616	6.240521	-81.8357	0.2139017
43.91618	4742.198	6.463402	-81.71638	0.1945182
43.97016	4737.813	6.743136	-81.59383	0.189411
44.02415	4733.458	7.075975	-81.46846	0.2032094
44.07814	4729.13	7.448078	-81.3407	0.2352075
44.13212	4724.818	7.835305	-81.21102	0.280911
44.18611	4720.517	8.21605	-81.07994	0.3355938
44.2401	4716.219	8.573682	-80.94799	0.3956871
44.29408	4711.922	8.899457	-80.81576	0.4586677
44.34807	4707.622	9.185699	-80.68385	0.5226715
44.40206	4703.319	9.423769	-80.55286	0.5862408
44.45605	4699.015	9.609568	-80.42342	0.6481701
44.51003	4694.715	9.736905	-80.29613	0.7074369
44.56402	4690.423	9.800838	-80.17157	0.7631655
44.61801	4686.15	9.799456	-80.05032	0.8146293
44.67199	4681.901	9.735931	-79.93291	0.8612493
44.72598	4677.675	9.620678	-79.8198	0.9026049
44.77997	4673.469	9.46758	-79.71146	0.9384099
44.83395	4669.279	9.289229	-79.60831	0.9685336
44.88794	4665.098	9.094761	-79.51071	0.9929783
44.94193	4660.925	8.894619	-79.41899	1.011921
44.99592	4656.757	8.699293	-79.3334	1.025687
45.0499	4652.598	8.510793	-79.2541	1.03481
45.10389	4648.448	8.328935	-79.18116	1.039992
45.15788	4644.301	8.155038	-79.11459	1.042113
45.21186	4640.149	7.987763	-79.05431	1.042181
45.26585	4635.991	7.824143	-79.00018	1.041273
45.31984	4631.823	7.664275	-78.95199	1.040482
45.37383	4627.646	7.509805	-78.90954	1.040829
45.42781	4623.462	7.365787	-78.87255	1.04317
45.4818	4619.28	7.236183	-78.84074	1.048116
45.53579	4615.107	7.126153	-78.81384	1.055984
45.58978	4610.952	7.04348	-78.79153	1.066699
45.64376	4606.82	6.99506	-78.77351	1.079847
45.69775	4602.719	6.990429	-78.75944	1.094683
45.75174	4598.648	7.036442	-78.74898	1.110183
45.80573	4594.602	7.130054	-78.74178	1.125154
45.85971	4590.566	7.260942	-78.73752	1.138326
45.9137	4586.527	7.418375	-78.73583	1.148464
45.96769	4582.476	7.589439	-78.73637	1.154402
46.02167	4578.407	7.761679	-78.73877	1.155181
46.07566	4574.308	7.925904	-78.74262	1.150024
46.12965	4570.174	8.072561	-78.74754	1.138404
46.18363	4566	8.18723	-78.75316	1.120053
46.23762	4561.783	8.25683	-78.7591	1.094939
46.29161	4557.524	8.271247	-78.76501	1.063233
46.3456	4553.226	8.219883	-78.77058	1.025344
46.39958	4548.886	8.099855	-78.77549	0.981802
46.45357	4544.508	7.913482	-78.77949	0.9332789
46.50756	4540.1	7.666003	-78.78234	0.880527
46.56154	4535.671	7.363578	-78.78385	0.8243397
46.61553	4531.237	7.010486	-78.78384	0.7655097
46.66952	4526.809	6.612483	-78.78214	0.7048267
46.7235	4522.391	6.180089	-78.77858	0.6430962
46.77749	4517.979	5.730818	-78.77299	0.5811349
46.83148	4513.568	5.289798	-78.76517	0.5198052
46.88547	4509.152	4.885592	-78.75494	0.4600105
46.93945	4504.726	4.545057	-78.74209	0.402717
46.99344	4500.29	4.281647	-78.7264	0.3490374
47.04743	4495.847	4.095517	-78.7077	0.3002761
47.10141	4491.4	3.978862	-78.68579	0.2580434
47.1554	4486.958	3.917818	-78.66047	0.2243053
47.20939	4482.529	3.894315	-78.63155	0.2010672
47.26337	4478.125	3.892608	-78.59887	0.1895615
47.31736	4473.759	3.900615	-78.56224	0.1891718
47.37135	4469.431	3.909431	-78.52157	0.197316
47.42534	4465.14	3.914191	-78.47676	0.2106111
47.47932	4460.876	3.918576	-78.42779	0.2260954
47.53331	4456.629	3.930588	-78.37468	0.2416919
47.5873	4452.389	3.961081	-78.3175	0.2561713
47.64128	4448.152	4.021041	-78.25636	0.26895
47.69527	4443.917	4.118335	-78.1914	0.2799592
47.74926	4439.686	4.25799	-78.12278	0.2895351
47.80325	4435.463	4.444214	-78.0507	0.2983653
47.85723	4431.243	4.675368	-77.97542	0.3074093
47.91122	4427.024	4.943833	-77.89718	0.3178202
47.96521	4422.797	5.236269	-77.81628	0.3307521
48.0192	4418.562	5.53888	-77.73304	0.3471864
48.07318	4414.318	5.838985	-77.64781	0.3677137
48.12717	4410.071	6.124963	-77.56099	0.3924242
48.18116	4405.827	6.38774	-77.47303	0.4209458
48.23515	4401.596	6.619443	-77.38438	0.4525488
48.28913	4397.389	6.816765	-77.29554	0.4862537
48.34312	4393.207	6.981371	-77.207	0.5210411
48.39711	4389.05	7.118737	-77.11923	0.5558566
48.45109	4384.915	7.232448	-77.03268	0.5897315
48.50508	4380.799	7.325896	-76.94778	0.6218277
48.55907	4376.704	7.401131	-76.86491	0.6514212
48.61305	4372.63	7.456113	-76.78444	0.6779681
48.66704	4368.583	7.487299	-76.70668	0.7010993
48.72103	4364.555	7.495339	-76.63193	0.720616
48.77502	4360.543	7.48553	-76.56045	0.7364966
48.829	4356.543	7.46965	-76.49242	0.7488807
48.88299	4352.551	7.45437	-76.42802	0.7581031
48.93698	4348.569	7.443202	-76.36734	0.7646598
48.99096	4344.595	7.438378	-76.31044	0.7692083
49.04495	4340.624	7.444403	-76.25735	0.7725375
49.09894	4336.652	7.468661	-76.20808	0.7755297
49.15292	4332.668	7.515139	-76.16255	0.7791094
49.20691	4328.664	7.585801	-76.12068	0.7841756
49.2609	4324.634	7.680864	-76.08229	0.7915172
49.31489	4320.585	7.792332	-76.0472	0.8017453
49.36887	4316.527	7.906625	-76.01515	0.8152394
49.42286	4312.475	8.005592	-75.98593	0.8321092
49.47685	4308.434	8.072984	-75.95928	0.8522119
49.53083	4304.406	8.097551	-75.93496	0.8751447
49.58482	4300.388	8.07262	-75.91267	0.900344
49.63881	4296.376	7.998818	-75.89218	0.9271266
49.69279	4292.368	7.882621	-75.87319	0.9547829
49.74678	4288.361	7.738297	-75.85543	0.9825841
49.80077	4284.354	7.586905	-75.83862	1.009869
49.85476	4280.345	7.447467	-75.82245	1.036038
49.90874	4276.333	7.330421	-75.80662	1.060559
49.96273	4272.314	7.241398	-75.79077	1.083019
50.01672	4268.283	7.183064	-75.77457	1.103079
50.07071	4264.237	7.151855	-75.7577	1.12052
50.12469	4260.169	7.135396	-75.73983	1.135203
50.17868	4256.076	7.110517	-75.72074	1.147122
50.23267	4251.958	7.053875	-75.7002	1.156328
50.28666	4247.818	6.945195	-75.67802	1.162968
50.34064	4243.661	6.772521	-75.65401	1.167245
50.39463	4239.489	6.532393	-75.62801	1.169381
50.44862	4235.309	6.228234	-75.59984	1.169581
50.5026	4231.125	5.872354	-75.56931	1.16805
50.55659	4226.941	5.478346	-75.53626	1.164947
50.61058	4222.76	5.062836	-75.50056	1.16039
50.66457	4218.579	4.644995	-75.46206	1.154441
50.71855	4214.39	4.245181	-75.42065	1.147143
50.77254	4210.184	3.885588	-75.37623	1.138505
50.82653	4205.957	3.58073	-75.3287	1.128503
50.88051	4201.708	3.336122	-75.27802	1.117108
50.9345	4197.445	3.150511	-75.2241	1.10423
50.98849	4193.178	3.012382	-75.16691	1.089754
51.04247	4188.916	2.901211	-75.10645	1.073508
51.09646	4184.676	2.796726	-75.04272	1.055267
51.15045	4180.47	2.693707	-74.97581	1.034797
51.20444	4176.302	2.599305	-74.90583	1.011839
51.25842	4172.167	2.525926	-74.83289	0.9861708
51.31241	4168.058	2.480259	-74.75715	0.9576039
51.3664	4163.971	2.460934	-74.67879	0.9260106
51.42038	4159.902	2.464462	-74.59807	0.8913107
51.47437	4155.848	2.487253	-74.51522	0.8534983
51.52836	4151.805	2.530638	-74.43054	0.8126113
51.58234	4147.77	2.598085	-74.34435	0.7687711
51.63633	4143.743	2.695549	-74.25696	0.7221422
51.69032	4139.722	2.829307	-74.16871	0.6729866
51.74431	4135.708	3.001691	-74.07995	0.6216635
51.79829	4131.701	3.206573	-73.99107	0.5686022
51.85228	4127.704	3.431746	-73.9025	0.5143337
51.90627	4123.716	3.660626	-73.81465	0.4594505
51.96025	4119.732	3.875251	-73.72794	0.4046631
52.01424	4115.752	4.065861	-73.64274	0.3508369
52.06823	4111.783	4.233114	-73.55943	0.2990939
52.12222	4107.826	4.379578	-73.47832	0.2509772
52.1762	4103.882	4.509481	-73.39968	0.2087466
52.23019	4099.952	4.623398	-73.32377	0.1756646
52.28418	4096.033	4.719473	-73.25077	0.1557819
52.33817	4092.122	4.794472	-73.18084	0.151817
52.39215	4088.219	4.844242	-73.11408	0.1621845
52.44614	4084.324	4.866581	-73.05055	0.1818222
52.50013	4080.448	4.856155	-72.99028	0.2057359
52.55412	4076.596	4.81136	-72.93326	0.230589
52.6081	4072.778	4.740836	-72.87946	0.2544428
52.66209	4068.994	4.65429	-72.82884	0.2762566
52.71608	4065.244	4.561821	-72.78129	0.295515
52.77006	4061.519	4.472188	-72.73668	0.3120277
52.82405	4057.812	4.390011	-72.69489	0.3258137
52.87804	4054.112	4.319952	-72.65574	0.3370566
52.93202	4050.413	4.268478	-72.61906	0.346065
52.98601	4046.704	4.239625	-72.58466	0.3532425
53.04	4042.979	4.230861	-72.55233	0.3590631
53.09399	4039.232	4.239141	-72.52186	0.3640181
53.14797	4035.464	4.264425	-72.49304	0.3685781
53.20196	4031.673	4.308773	-72.46565	0.3731386
53.25595	4027.867	4.369997	-72.43946	0.3779713
53.30993	4024.051	4.439636	-72.41423	0.3832023
53.36392	4020.229	4.50875	-72.38973	0.388793
53.41791	4016.402	4.569602	-72.36573	0.3945653
53.47189	4012.57	4.617582	-72.34199	0.4001774
53.52588	4008.735	4.648044	-72.31828	0.4051677
53.57987	4004.898	4.657504	-72.29442	0.4089974
53.63386	4001.054	4.647223	-72.27021	0.4111139
53.68784	3997.193	4.622866	-72.24546	0.4109354
53.74183	3993.307	4.590333	-72.21997	0.4078975
53.79582	3989.39	4.554854	-72.19354	0.4014928
53.8498	3985.442	4.523643	-72.16602	0.3912832
53.90379	3981.461	4.501365	-72.1373	0.3769412
53.95778	3977.448	4.487191	-72.10726	0.3582824
54.01176	3973.408	4.476548	-72.07585	0.3353433
54.06575	3969.353	4.466706	-72.043	0.3084451
54.11974	3965.286	4.455192	-72.00867	0.2782802
54.17373	3961.213	4.439631	-71.97282	0.246088
54.22771	3957.143	4.415444	-71.93537	0.2140269
54.2817	3953.081	4.376301	-71.89629	0.185774
54.33569	3949.026	4.313204	-71.85551	0.16715
54.38968	3944.972	4.222264	-71.81295	0.1649164
54.44366	3940.914	4.104506	-71.76851	0.1820602
54.49765	3936.851	3.963946	-71.7221	0.2152363
54.55164	3932.784	3.808952	-71.67363	0.2586622
54.60563	3928.717	3.650309	-71.62299	0.3076839
54.65961	3924.656	3.499439	-71.57007	0.3592106
54.7136	3920.61	3.371779	-71.51478	0.4112197
54.76759	3916.583	3.278209	-71.457	0.4623234
54.82157	3912.575	3.221658	-71.39667	0.5114928
54.87556	3908.586	3.196986	-71.33372	0.5579573
54.92955	3904.617	3.195671	-71.26812	0.6011117
54.98354	3900.67	3.209211	-71.19987	0.6405032
55.03752	3896.747	3.228054	-71.12901	0.6757981
55.09151	3892.845	3.24499	-71.0556	0.7067728
55.1455	3888.964	3.257052	-70.97968	0.7332951
55.19948	3885.108	3.261203	-70.90137	0.7553319
55.25347	3881.283	3.255473	-70.82075	0.7729408
55.30746	3877.491	3.242778	-70.73791	0.7862636
55.36145	3873.727	3.227077	-70.65298	0.795534
55.41543	3869.983	3.212275	-70.5661	0.8010454
55.46942	3866.254	3.206759	-70.47742	0.8031535
55.52341	3862.542	3.221988	-70.38715	0.8022636
55.57739	3858.844	3.267341	-70.29549	0.7988144
55.63138	3855.157	3.349567	-70.20274	0.793254
55.68537	3851.48	3.47067	-70.10914	0.7860327
55.73935	3847.807	3.630646	-70.015	0.7775671
55.79334	3844.139	3.826832	-69.92062	0.7682356
55.84733	3840.475	4.050483	-69.82632	0.7583759
55.90132	3836.814	4.290987	-69.73237	0.7482144
55.9553	3833.161	4.539291	-69.63908	0.7378911
56.00929	3829.518	4.794515	-69.54671	0.7274148
56.06328	3825.881	5.057621	-69.45558	0.7166936
56.11726	3822.241	5.32934	-69.36593	0.7055307
56.17125	3818.588	5.610739	-69.27795	0.693642
56.22524	3814.929	5.897854	-69.1918	0.6807119
56.27922	3811.271	6.179274	-69.10754	0.6664239
56.33321	3807.622	6.437738	-69.02519	0.6505266
56.3872	3803.985	6.660863	-68.94473	0.6328684
56.44119	3800.361	6.84362	-68.86605	0.6134641
56.49517	3796.743	6.986238	-68.78898	0.5924887
56.54916	3793.127	7.092701	-68.71333	0.5703371
56.60315	3789.506	7.165512	-68.63889	0.5476681
56.65714	3785.879	7.207085	-68.56539	0.5254324
56.71112	3782.24	7.222344	-68.49261	0.5048909
56.76511	3778.593	7.219382	-68.42031	0.4876379
56.8191	3774.941	7.207052	-68.34827	0.4755275
56.87309	3771.289	7.189548	-68.27627	0.4704561
56.92707	3767.64	7.166567	-68.20411	0.4740492
56.98106	3763.996	7.136137	-68.13164	0.4873217
57.03505	3760.35	7.096589	-68.05874	0.5104155
57.08903	3756.697	7.04755	-67.98534	0.5426368
57.14302	3753.03	6.98925	-67.9114	0.5826702
57.19701	3749.343	6.923594	-67.83691	0.6288759
57.251	3745.633	6.853854	-67.7619	0.6795523
57.30498	3741.903	6.78264	-67.68639	0.733075
57.35897	3738.154	6.707441	-67.61043	0.7879485
57.41296	3734.388	6.626558	-67.53403	0.8428289
57.46694	3730.616	6.540652	-67.45725	0.896544
57.52093	3726.848	6.451145	-67.38013	0.9480454
57.57492	3723.093	6.361059	-67.3027	0.99646
57.6289	3719.353	6.272151	-67.22498	1.040995
57.68289	3715.627	6.184039	-67.14706	1.081006
57.73688	3711.911	6.095391	-67.06894	1.115914
57.79087	3708.199	6.004806	-66.9907	1.145231
57.84485	3704.485	5.909075	-66.91236	1.168564
57.89884	3700.768	5.804885	-66.83396	1.185593
57.95283	3697.051	5.692007	-66.75548	1.19612
58.00681	3693.335	5.568904	-66.67694	1.200053
58.0608	3689.621	5.429608	-66.59835	1.197433
58.11479	3685.908	5.272349	-66.51971	1.188404
58.16877	3682.199	5.098969	-66.44099	1.173265
58.22276	3678.495	4.910475	-66.36211	1.152449
58.27675	3674.795	4.70854	-66.28297	1.126576
58.33074	3671.1	4.496444	-66.20343	1.096442
58.38472	3667.412	4.27781	-66.12336	1.063028
58.43871	3663.74	4.052793	-66.04257	1.027451
58.4927	3660.087	3.824089	-65.9609	0.9909897
58.54668	3656.461	3.599235	-65.87812	0.9549947
58.60067	3652.865	3.387863	-65.79401	0.9208628
58.65466	3649.298	3.194666	-65.70834	0.8899187
58.70864	3645.76	3.021139	-65.62085	0.8633466
58.76263	3642.255	2.867145	-65.53131	0.8420556
58.81662	3638.784	2.731755	-65.43954	0.8266186
58.87061	3635.347	2.613246	-65.34535	0.817206
58.92459	3631.942	2.510724	-65.24859	0.8135493
58.97858	3628.565	2.425276	-65.14915	0.8150058
59.03257	3625.215	2.356287	-65.04694	0.820623
59.08656	3621.896	2.299438	-64.94193	0.8292931
59.14054	3618.602	2.252295	-64.83418	0.8398599
59.19453	3615.326	2.215338	-64.72377	0.8512031
59.24852	3612.062	2.187829	-64.61086	0.8623378
59.30251	3608.803	2.167704	-64.49564	0.8724499
59.35649	3605.54	2.153083	-64.37833	0.8809126
59.41048	3602.267	2.145405	-64.25924	0.8873292
59.46447	3598.979	2.147793	-64.13865	0.8914902
59.51845	3595.671	2.165912	-64.01686	0.8933586
59.57244	3592.341	2.20789	-63.89421	0.8930434
59.62643	3588.986	2.280141	-63.77103	0.8907328
59.68042	3585.603	2.384712	-63.64765	0.8867186
59.7344	3582.19	2.521999	-63.52436	0.8813254
59.78839	3578.749	2.690229	-63.40144	0.8748928
59.84238	3575.277	2.887108	-63.27913	0.8677592
59.89636	3571.777	3.111697	-63.15762	0.8602478
59.95035	3568.255	3.361557	-63.03703	0.8526155
60.00434	3564.711	3.628038	-62.91745	0.8450468
60.05832	3561.146	3.896948	-62.79887	0.8376209
60.11231	3557.565	4.158891	-62.68123	0.8302941
60.1663	3553.972	4.405032	-62.56436	0.8229131
60.22029	3550.375	4.629343	-62.44799	0.815209
60.27427	3546.779	4.828001	-62.33178	0.8068235
60.32826	3543.198	5.006822	-62.21527	0.7973157
60.38225	3539.641	5.172255	-62.09793	0.7861879
60.43623	3536.123	5.325411	-61.97918	0.7729232
60.49022	3532.652	5.463265	-61.85838	0.7570115
60.54421	3529.23	5.579516	-61.7348	0.7379673
60.59819	3525.855	5.669521	-61.6077	0.7153932
60.65218	3522.514	5.734618	-61.47628	0.6889668
60.70617	3519.199	5.779851	-61.33969	0.658504
60.76016	3515.906	5.810879	-61.19707	0.6239706
60.81414	3512.635	5.826027	-61.04753	0.5854755
60.86813	3509.383	5.818594	-60.89024	0.5433331
60.92212	3506.143	5.784862	-60.72435	0.4980475
60.9761	3502.91	5.726167	-60.54907	0.4504032
61.03009	3499.679	5.646175	-60.36363	0.4015482
61.08408	3496.448	5.552315	-60.16732	0.3530952
61.13807	3493.217	5.455719	-59.95946	0.3074797
61.19205	3489.981	5.367784	-59.73947	0.2682972
61.24604	3486.738	5.298963	-59.50683	0.2405344
61.30003	3483.492	5.256044	-59.26117	0.2295141
61.35402	3480.244	5.239835	-59.00219	0.2377918
61.408	3476.994	5.246069	-58.72974	0.2629788
61.46199	3473.74	5.273008	-58.44379	0.299652
61.51598	3470.485	5.318985	-58.1444	0.3425725
61.56997	3467.234	5.379817	-57.83176	0.3878472
61.62395	3463.995	5.445918	-57.50619	0.4328152
61.67794	3460.771	5.505308	-57.16805	0.4756047
61.73193	3457.564	5.552572	-56.81779	0.5148735
61.78591	3454.371	5.583773	-56.45594	0.5495807
61.8399	3451.188	5.597852	-56.08304	0.5789332
61.89389	3448.016	5.593153	-55.69973	0.6023242
61.94787	3444.857	5.568647	-55.30666	0.6192629
62.00186	3441.714	5.523157	-54.90448	0.6294152
62.05585	3438.585	5.456771	-54.49382	0.632547
62.10984	3435.473	5.371674	-54.07528	0.6286045
62.16382	3432.378	5.271548	-53.64939	0.6176718
62.21781	3429.298	5.154739	-53.21661	0.5999975
62.2718	3426.232	5.020458	-52.77726	0.5759753
62.32578	3423.177	4.870679	-52.3316	0.5462158
62.37977	3420.133	4.712067	-51.87979	0.5114906
62.43376	3417.104	4.552407	-51.42188	0.4728427
62.48774	3414.092	4.398356	-50.95784	0.4316351
62.54173	3411.105	4.249712	-50.48757	0.3897755
62.59572	3408.149	4.103477	-50.01085	0.3498883
62.64971	3405.226	3.957074	-49.5274	0.3156791
62.70369	3402.343	3.806858	-49.03679	0.291994
62.75768	3399.505	3.645476	-48.53854	0.2839131
62.81167	3396.722	3.467281	-48.03205	0.2945776
62.86565	3394.002	3.270189	-47.51667	0.3233079
62.91964	3391.346	3.055505	-46.99168	0.3664918
62.97363	3388.757	2.827962	-46.45628	0.4198785
63.02761	3386.228	2.594489	-45.90966	0.4799456
63.0816	3383.757	2.364818	-45.35089	0.5441278
63.13559	3381.334	2.151721	-44.77901	0.6105993
63.18958	3378.96	1.971683	-44.19296	0.6780192
63.24356	3376.637	1.841034	-43.59169	0.7453793
63.29755	3374.375	1.77067	-42.97412	0.8118658
63.35154	3372.172	1.756634	-42.33916	0.8768337
63.40553	3370.025	1.788214	-41.6857	0.9397532
63.45951	3367.925	1.860954	-41.01264	1.000179
63.5135	3365.868	1.974625	-40.31888	1.057742
63.56749	3363.851	2.127961	-39.60335	1.112166
63.62148	3361.871	2.313577	-38.86495	1.163233
63.67546	3359.927	2.520793	-38.10265	1.210833
63.72945	3358.016	2.74115	-37.31546	1.254941
63.78344	3356.133	2.972489	-36.5024	1.295643
63.83742	3354.272	3.213342	-35.66255	1.333107
63.89141	3352.425	3.458255	-34.79506	1.367639
63.9454	3350.585	3.702004	-33.89907	1.399543
63.99939	3348.737	3.942075	-32.9738	1.429224
64.05338	3346.874	4.17931	-32.01847	1.457084
64.10736	3344.991	4.415187	-31.03233	1.483521
64.16135	3343.087	4.65169	-30.01461	1.508856
64.21533	3341.164	4.890302	-28.96457	1.533298
64.26932	3339.234	5.129624	-27.88137	1.556942
64.32331	3337.312	5.362162	-26.76421	1.579772
64.3773	3335.414	5.579727	-25.61222	1.601724
64.43128	3333.552	5.776434	-24.42455	1.622586
64.48527	3331.734	5.949651	-23.20028	1.64216
64.53925	3329.971	6.100248	-21.93851	1.660189
64.59325	3328.268	6.23311	-20.63822	1.67642
64.64723	3326.624	6.351292	-19.29845	1.690526
64.70122	3325.037	6.456257	-17.91816	1.702297
64.7552	3323.507	6.544465	-16.49626	1.71149
64.80919	3322.034	6.612493	-15.0316	1.717981
64.86318	3320.623	6.657256	-13.52307	1.721619
64.91717	3319.278	6.677306	-11.96938	1.722411
64.97115	3318.004	6.672647	-10.36928	1.720424
65.02514	3316.802	6.642443	-8.721413	1.715878
65.07912	3315.671	6.590427	-7.024388	1.70911
65.13312	3314.612	6.523771	-5.276793	1.70047
65.1871	3313.631	6.450233	-3.477113	1.690596
65.24109	3312.739	6.376156	-1.623792	1.680099
65.29507	3311.953	6.306674	0.2847714	1.669836
65.34906	3311.286	6.243725	2.250124	1.660565
65.40305	3310.748	6.188802	4.273942	1.653273
65.45704	3310.346	6.147444	6.357912	1.648846
65.51102	3310.082	6.125578	8.5038	1.648294
65.56501	3309.948	6.125808	10.7134	1.652308
65.619	3309.942	6.151724	12.98862	1.661707
65.67299	3310.062	6.203712	15.33138	1.677077
65.72697	3310.311	6.278127	17.74364	1.698992
65.78096	3310.692	6.370981	20.22731	1.727699
65.83495	3311.207	6.480795	22.78432	1.763558
65.88893	3311.86	6.601672	25.41662	1.806632
65.94292	3312.656	6.726195	28.12614	1.857013
65.99691	3313.601	6.848577	30.91479	1.914695
66.0509	3314.709	6.966806	33.78435	1.979512
66.10488	3315.99	7.07892	36.73671	2.051464
66.15887	3317.454	7.185519	39.77359	2.130504
66.21286	3319.106	7.289692	42.89684	2.216636
66.26685	3320.948	7.393223	46.10809	2.309743
66.32083	3322.977	7.498293	49.40913	2.409919
66.37482	3325.193	7.608067	52.80163	2.517167
66.4288	3327.59	7.721246	56.2874	2.631634
66.4828	3330.164	7.83299	59.86802	2.753329
66.53678	3332.911	7.937239	63.54534	2.882348
66.59077	3335.827	8.024084	67.32104	3.018724
66.64475	3338.91	8.087016	71.19691	3.162535
66.69874	3342.16	8.124543	75.1747	3.313788
66.75273	3345.578	8.139395	79.25613	3.472338
66.80672	3349.171	8.135516	83.44299	3.638026
66.8607	3352.947	8.12007	87.73717	3.810772
66.91469	3356.914	8.103629	92.14063	3.990296
66.96867	3361.076	8.095342	96.65525	4.176138
67.02267	3365.438	8.102619	101.2831	4.367829
67.07665	3370	8.132926	106.0264	4.56499
67.13064	3374.759	8.191628	110.8874	4.767082
67.18462	3379.712	8.282662	115.8684	4.973425
67.23861	3384.862	8.409233	120.9716	5.183437
67.2926	3390.215	8.572482	126.1996	5.396658
67.34659	3395.785	8.769009	131.555	5.612534
67.40057	3401.593	8.992214	137.04	5.830381
67.45456	3407.659	9.234404	142.6575	6.049663
67.50854	3414.004	9.489598	148.4101	6.269998
67.56254	3420.642	9.755828	154.3006	6.490842
67.61652	3427.583	10.03345	160.3317	6.711805
67.67051	3434.843	10.32081	166.5062	6.932223
67.72449	3442.436	10.61399	172.8267	7.151884
67.77848	3450.375	10.91806	179.2961	7.370316
67.83247	3458.663	11.24191	185.917	7.587176
67.88646	3467.301	11.59589	192.6915	7.801889
67.94044	3476.287	11.98645	199.6221	8.013967
67.99443	3485.622	12.41995	206.7108	8.222944
68.04842	3495.304	12.89748	213.9591	8.428519
68.10241	3505.344	13.41361	221.3683	8.62964
68.15639	3515.755	13.95834	228.9392	8.825781
68.21038	3526.559	14.52095	236.6721	9.016476
68.26437	3537.771	15.09357	244.5668	9.201051
68.31835	3549.407	15.67163	252.6223	9.378966
68.37234	3561.482	16.25462	260.8369	9.549693
68.42633	3574.008	16.84555	269.2084	9.712782
68.48032	3586.992	17.44786	277.734	9.867902
68.5343	3600.444	18.06061	286.4101	10.01481
68.58829	3614.373	18.68635	295.2321	10.15307
68.64228	3628.783	19.3288	304.1953	10.28245
68.69627	3643.68	19.99164	313.2937	10.40315
68.75025	3659.066	20.67664	322.5215	10.51479
68.80424	3674.947	21.38541	331.8716	10.6171
68.85822	3691.331	22.119	341.3367	10.7099
68.91222	3708.23	22.8748	350.9091	10.79308
68.9662	3725.66	23.64889	360.5804	10.86626
69.02019	3743.635	24.44036	370.3419	10.92921
69.07417	3762.171	25.24816	380.1845	10.98135
69.12816	3781.284	26.0643	390.0989	11.02252
69.18215	3800.987	26.87856	400.0753	11.05226
69.23614	3821.292	27.68545	410.1036	11.07022
69.29012	3842.202	28.48191	420.1734	11.07587
69.34411	3863.729	29.26506	430.274	11.06896
69.39809	3885.883	30.02951	440.3945	11.04895
69.45209	3908.681	30.77195	450.5238	11.01545
69.50607	3932.138	31.49175	460.6505	10.96804
69.56006	3956.271	32.18884	470.763	10.90635
69.61404	3981.094	32.86689	480.8496	10.82997
69.66803	4006.626	33.53866	490.8982	10.73853
69.72202	4032.885	34.21691	500.8967	10.63166
69.77601	4059.883	34.90714	510.8325	10.50916
69.82999	4087.628	35.61072	520.6928	10.3706
69.88398	4116.131	36.32449	530.4644	10.21568
69.93797	4145.395	37.04758	540.1339	10.04429
69.99196	4175.439	37.77961	549.6875	9.856042
70.04594	4206.271	38.51411	559.1109	9.650644
70.09993	4237.897	39.2444	568.3893	9.427999
70.15392	4270.317	39.9629	577.5078	9.187737
70.2079	4303.536	40.66107	586.4507	8.929949
70.26189	4337.556	41.33016	595.2019	8.654692
70.31588	4372.377	41.9684	603.745	8.361506
70.36987	4407.993	42.57659	612.0626	8.050737
70.42385	4444.385	43.15296	620.1376	7.722787
70.47784	4481.518	43.69734	627.9522	7.378005
70.53183	4519.348	44.21284	635.488	7.016557
70.58582	4557.825	44.70224	642.7265	6.639016
70.6398	4596.896	45.16459	649.6498	6.246175
70.69379	4636.503	45.59663	656.239	5.839213
70.74777	4676.587	45.99651	662.4754	5.418658
70.80177	4717.083	46.36415	668.3411	4.985822
70.85575	4757.93	46.70377	673.818	4.541885
70.90974	4799.078	47.01897	678.8892	4.089435
70.96372	4840.483	47.31419	683.538	3.629638
71.01771	4882.109	47.59564	687.7484	3.166208
71.0717	4923.933	47.86772	691.5055	2.70305
71.12569	4965.943	48.12951	694.7958	2.247621
71.17967	5008.135	48.38183	697.6068	1.812135
71.23366	5050.505	48.62346	699.9266	1.420271
71.28764	5093.05	48.84912	701.7458	1.123577
71.34164	5135.775	49.05006	703.0559	1.012091
71.39562	5178.677	49.22151	703.8501	1.139474
71.44961	5221.75	49.36134	704.1229	1.440169
71.50359	5264.979	49.46645	703.8707	1.826465
71.55758	5308.35	49.53271	703.0922	2.249423
71.61157	5351.846	49.56097	701.7878	2.687433
71.66556	5395.457	49.5588	699.9586	3.128854
71.71954	5439.164	49.53251	697.6084	3.567731
71.77353	5482.946	49.48232	694.7422	4.000509
71.82751	5526.774	49.40488	691.3672	4.424296
71.88151	5570.605	49.29552	687.4918	4.836907
71.93549	5614.408	49.14981	683.1257	5.238496
71.98948	5658.157	48.96004	678.2795	5.627313
72.04346	5701.817	48.7179	672.9662	6.002442
72.09745	5745.345	48.40997	667.1994	6.363444
72.15144	5788.684	48.01542	660.9932	6.710516
72.20543	5831.767	47.51498	654.3629	7.043207
72.25941	5874.514	46.89935	647.3258	7.361876
72.3134	5916.837	46.16475	639.8981	7.66572
72.36739	5958.64	45.31506	632.0975	7.955692
72.42138	5999.817	44.36413	623.9419	8.231794
72.47536	6040.262	43.33036	615.4495	8.494583
72.52935	6079.881	42.2355	606.639	8.743649
72.58334	6118.581	41.1037	597.5292	8.980642
72.63732	6156.289	39.95858	588.1384	9.205234
72.69131	6192.933	38.82154	578.4854	9.41834
72.7453	6228.465	37.71167	568.5889	9.620041
72.79929	6262.84	36.6424	558.4671	9.810828
72.85327	6296.032	35.61852	548.1381	9.991252
72.90726	6328.025	34.64	537.6199	10.16151
72.96125	6358.82	33.70143	526.9302	10.32143
73.01524	6388.421	32.78947	516.0865	10.47102
73.06922	6416.85	31.88671	505.106	10.61015
73.12321	6444.12	30.98255	494.0058	10.7385
73.17719	6470.253	30.07527	482.803	10.85552
73.23119	6495.256	29.1687	471.5143	10.9607
73.28517	6519.145	28.27238	460.1565	11.05354
73.33916	6541.938	27.40004	448.746	11.13346
73.39314	6563.661	26.5646	437.2996	11.19993
73.44713	6584.335	25.77795	425.8336	11.25248
73.50112	6603.998	25.05666	414.3645	11.29075
73.55511	6622.689	24.41609	402.9088	11.31423
73.60909	6640.455	23.87294	391.4828	11.32259
73.66308	6657.341	23.43398	380.1027	11.31581
73.71706	6673.403	23.0904	368.7846	11.29377
73.77106	6688.695	22.81953	357.5446	11.25624
73.82504	6703.262	22.59796	346.3985	11.20325
73.87903	6717.141	22.39433	335.3616	11.13513
73.93301	6730.378	22.17211	324.4489	11.05208
73.987	6743.015	21.91156	313.6752	10.95424
74.04099	6755.091	21.61411	303.0548	10.84205
74.09498	6766.649	21.28417	292.601	10.71644
74.14896	6777.726	20.92822	282.3268	10.57815
74.20295	6788.354	20.55588	272.2446	10.42782
74.25694	6798.565	20.17809	262.366	10.26666
74.31093	6808.39	19.80932	252.7018	10.09568
74.36491	6817.85	19.4695	243.2617	9.916468
74.4189	6826.963	19.17042	234.0547	9.730417
74.47289	6835.745	18.9091	225.0887	9.538711
74.52687	6844.219	18.67434	216.3706	9.342909
74.58086	6852.409	18.44412	207.9057	9.144843
74.63485	6860.34	18.19641	199.6984	8.946068
74.68884	6868.036	17.91413	191.7523	8.747846
74.74282	6875.53	17.58761	184.0694	8.551666
74.79681	6882.85	17.20805	176.6505	8.359158
74.8508	6890.009	16.776	169.4952	8.17165
74.90479	6897.005	16.30219	162.6024	7.990068
74.95877	6903.839	15.80097	155.9693	7.81556
75.01276	6910.505	15.28886	149.5924	7.648887
75.06674	6917.002	14.78558	143.4668	7.491055
75.12074	6923.329	14.31714	137.5871	7.342226
75.17472	6929.494	13.91571	131.9467	7.202777
75.22871	6935.497	13.61076	126.5385	7.072701
75.28269	6941.339	13.41403	121.3544	6.952
75.33668	6947.003	13.31761	116.386	6.840308
75.39067	6952.468	13.29492	111.6243	6.736918
75.44466	6957.711	13.31653	107.0599	6.641098
75.49864	6962.723	13.35622	102.683	6.552112
75.55263	6967.496	13.40029	98.48363	6.468917
75.60661	6972.033	13.43981	94.45199	6.390254
75.66061	6976.344	13.47021	90.57803	6.314944
75.71459	6980.438	13.49209	86.85182	6.241873
75.76858	6984.317	13.51931	83.26371	6.169798
75.82256	6987.98	13.56486	79.80437	6.097396
75.87655	6991.426	13.6285	76.46467	6.023532
75.93054	6994.655	13.7049	73.23593	5.94706
75.98453	6997.661	13.78727	70.1098	5.867063
76.03851	7000.446	13.87763	67.07851	5.782689
76.0925	7003.026	13.98136	64.13478	5.693147
76.14648	7005.417	14.09291	61.27195	5.59791
76.20048	7007.639	14.19965	58.48389	5.496638
76.25446	7009.706	14.28651	55.76522	5.389081
76.30845	7011.634	14.34322	53.11124	5.275053
76.36243	7013.445	14.36977	50.51788	5.154562
76.41642	7015.15	14.36988	47.9816	5.027775
76.47041	7016.756	14.34838	45.49952	4.894914
76.5244	7018.268	14.30726	43.06931	4.756215
76.57838	7019.684	14.24426	40.68907	4.612103
76.63237	7021	14.15678	38.35742	4.462979
76.68636	7022.222	14.04724	36.07332	4.309392
76.74035	7023.375	13.91558	33.83623	4.151737
76.79433	7024.486	13.7708	31.64586	3.990571
76.84832	7025.578	13.62427	29.50223	3.826423
76.90231	7026.663	13.48097	27.40556	3.659955
76.95629	7027.735	13.33421	25.35623	3.49179
77.01028	7028.789	13.16848	23.35476	3.322479
77.06427	7029.814	12.96763	21.40167	3.152611
77.11826	7030.803	12.72263	19.49742	2.982821
77.17224	7031.753	12.43093	17.64247	2.813677
77.22623	7032.667	12.09478	15.83717	2.645682
77.28022	7033.552	11.72482	14.08172	2.479378
77.33421	7034.415	11.33473	12.37606	2.31531
77.38819	7035.248	10.94026	10.72	2.153921
77.44218	7036.038	10.55839	9.113132	1.995544
77.49616	7036.768	10.20667	7.554767	1.840531
77.55016	7037.418	9.898011	6.044024	1.689144
77.60414	7037.968	9.633847	4.57978	1.541696
77.65813	7038.401	9.403491	3.160732	1.398459
77.71211	7038.71	9.20008	1.785443	1.25969
77.7661	7038.89	9.020267	0.4523016	1.12577
77.82009	7038.938	8.859183	-0.8404059	0.997254
77.87408	7038.848	8.710567	-2.094433	0.8748886
77.92806	7038.613	8.565507	-3.311522	0.7597829
77.98205	7038.218	8.418002	-4.493464	0.6537551
78.03603	7037.645	8.268212	-5.642031	0.5597026
78.09003	7036.894	8.118338	-6.758905	0.4819865
78.14401	7035.977	7.977895	-7.845594	0.4264958
78.198	7034.909	7.86495	-8.903465	0.3991931
78.25198	7033.7	7.793009	-9.93366	0.4023768
78.30597	7032.366	7.776514	-10.93709	0.4320446
78.35996	7030.923	7.828507	-11.91433	0.4802944
78.41395	7029.384	7.962104	-12.86574	0.5394803
78.46793	7027.761	8.191854	-13.79133	0.6040822
78.52192	7026.066	8.516566	-14.69088	0.6705525
78.5759	7024.312	8.921851	-15.56385	0.736741
78.6299	7022.503	9.388021	-16.40954	0.8014184
78.68388	7020.651	9.887887	-17.22702	0.8639404
78.73787	7018.777	10.38611	-18.01523	0.9240363
78.79185	7016.919	10.85075	-18.77294	0.9816902
78.84584	7015.116	11.26041	-19.49886	1.037043
78.89983	7013.396	11.60409	-20.19167	1.090263
78.95382	7011.782	11.87598	-20.85007	1.141497
79.0078	7010.29	12.08281	-21.47279	1.190886
79.06179	7008.931	12.24521	-22.05863	1.238542
79.11578	7007.699	12.38627	-22.60659	1.284451
79.16977	7006.567	12.518	-23.11583	1.328532
79.22375	7005.504	12.64054	-23.58579	1.370547
79.27774	7004.477	12.74658	-24.01612	1.41027
79.33173	7003.454	12.82892	-24.40674	1.447379
79.38571	7002.405	12.88321	-24.75783	1.481562
79.4397	7001.307	12.91022	-25.06979	1.512461
79.49369	7000.141	12.91474	-25.34327	1.539763
79.54768	6998.888	12.89831	-25.57909	1.563194
79.60166	6997.53	12.84941	-25.77834	1.582479
79.65565	6996.062	12.75894	-25.94235	1.597346
79.70964	6994.484	12.62936	-26.07264	1.607603
79.76363	6992.808	12.46941	-26.17088	1.613142
79.81761	6991.038	12.28851	-26.23888	1.613903
79.8716	6989.195	12.10107	-26.27854	1.60989
79.92558	6987.293	11.92024	-26.29173	1.601215
79.97958	6985.34	11.7543	-26.28037	1.588099
80.03356	6983.336	11.61053	-26.24631	1.570842
80.08755	6981.291	11.49173	-26.19133	1.549874
80.14153	6979.216	11.39657	-26.11715	1.525747
80.19552	6977.124	11.31912	-26.02541	1.49917
80.24951	6975.026	11.24939	-25.91763	1.470993
80.3035	6972.938	11.18042	-25.79521	1.442158
80.35748	6970.878	11.10386	-25.65938	1.413708
80.41147	6968.87	11.02026	-25.51115	1.386779
80.46545	6966.94	10.9341	-25.35125	1.362546
80.51945	6965.106	10.84967	-25.18021	1.342151
80.57343	6963.372	10.78021	-24.99826	1.326637
80.62742	6961.74	10.74852	-24.8055	1.316873
80.6814	6960.221	10.77828	-24.6018	1.313495
80.73539	6958.82	10.88784	-24.38693	1.316823
80.78938	6957.538	11.08616	-24.16051	1.326836
80.84337	6956.359	11.36753	-23.92216	1.343197
80.89735	6955.272	11.7118	-23.67142	1.36527
80.95134	6954.267	12.08622	-23.4079	1.392248
81.00533	6953.334	12.45949	-23.13128	1.423211
81.05932	6952.468	12.81323	-22.84141	1.4572
81.1133	6951.657	13.13712	-22.53833	1.493237
81.16729	6950.884	13.43049	-22.22234	1.530334
81.22128	6950.133	13.69893	-21.89405	1.567534
81.27526	6949.39	13.94789	-21.55446	1.603927
81.32925	6948.64	14.1745	-21.20493	1.638623
81.38324	6947.872	14.37486	-20.84721	1.67075
81.43723	6947.073	14.55144	-20.48337	1.699504
81.49121	6946.232	14.7148	-20.11585	1.72417
81.5452	6945.344	14.87706	-19.7474	1.744109
81.59919	6944.406	15.04102	-19.38104	1.75878
81.65318	6943.422	15.20712	-19.02004	1.767791
81.70716	6942.4	15.37323	-18.66778	1.770893
81.76115	6941.342	15.52793	-18.32775	1.767984
81.81513	6940.256	15.65973	-18.00346	1.759101
81.86913	6939.153	15.7605	-17.69843	1.744439
81.92311	6938.036	15.82103	-17.41602	1.724343
81.9771	6936.901	15.83461	-17.15947	1.699299
82.03108	6935.75	15.79689	-16.93178	1.669956
82.08507	6934.591	15.70483	-16.73574	1.637132
82.13906	6933.431	15.55775	-16.57384	1.601725
82.19305	6932.278	15.36008	-16.44833	1.564642
82.24703	6931.14	15.12238	-16.36117	1.526828
82.30102	6930.016	14.85957	-16.31408	1.489227
82.355	6928.916	14.58956	-16.30846	1.45268
82.409	6927.859	14.33309	-16.34537	1.417892
82.46298	6926.864	14.10968	-16.42555	1.385486
82.51697	6925.937	13.93195	-16.54945	1.355968
82.57095	6925.089	13.80413	-16.71709	1.329611
82.62494	6924.333	13.71714	-16.92824	1.306548
82.67893	6923.676	13.65382	-17.18229	1.286673
82.73292	6923.118	13.59803	-17.47844	1.269775
82.7869	6922.642	13.53504	-17.81566	1.25556
82.84089	6922.23	13.4524	-18.19275	1.243605
82.89487	6921.869	13.33766	-18.6083	1.233374
82.94887	6921.558	13.18239	-19.06087	1.224336
83.00285	6921.295	12.98532	-19.54893	1.215993
83.05684	6921.094	12.75005	-20.07086	1.207807
83.11082	6920.967	12.48452	-20.62502	1.19926
83.16481	6920.921	12.20371	-21.20985	1.189935
83.2188	6920.942	11.92968	-21.82393	1.179532
83.27279	6921.02	11.68668	-22.46597	1.167804
83.32677	6921.127	11.48823	-23.13496	1.154635
83.38076	6921.229	11.33398	-23.83007	1.139959
83.43475	6921.286	11.2142	-24.55088	1.123877
83.48874	6921.264	11.11841	-25.29727	1.106523
83.54272	6921.128	11.03923	-26.06947	1.088135
83.59671	6920.854	10.96676	-26.86803	1.068968
83.6507	6920.421	10.8896	-27.69382	1.049326
83.70468	6919.812	10.7946	-28.54794	1.029528
83.75867	6919.023	10.67341	-29.43168	1.009863
83.81266	6918.054	10.52632	-30.34643	0.990585
83.86665	6916.901	10.35549	-31.29369	0.9719564
83.92063	6915.562	10.16805	-32.27498	0.9542807
83.97462	6914.043	9.978375	-33.29177	0.9378597
84.02861	6912.351	9.804161	-34.3454	0.9230236
84.0826	6910.486	9.661269	-35.43707	0.9101788
84.13658	6908.45	9.563189	-36.5678	0.8998104
84.19057	6906.252	9.521507	-37.73832	0.8924333
84.24455	6903.901	9.541084	-38.94908	0.8886772
84.29855	6901.405	9.613905	-40.20027	0.8891653
84.35253	6898.776	9.72097	-41.49177	0.8945606
84.40652	6896.021	9.844388	-42.82325	0.9055312
84.4605	6893.146	9.975235	-44.1941	0.9226078
84.51449	6890.157	10.11505	-45.60342	0.9461284
84.56848	6887.079	10.26815	-47.05011	0.9762768
84.62247	6883.941	10.43519	-48.5329	1.01308
84.67645	6880.778	10.61911	-50.05027	1.056346
84.73044	6877.618	10.82671	-51.60054	1.105707
84.78442	6874.48	11.0581	-53.18187	1.160717
84.83842	6871.37	11.30688	-54.79232	1.220901
84.8924	6868.282	11.56414	-56.42981	1.285718
84.94639	6865.201	11.81877	-58.09217	1.354608
85.00037	6862.11	12.05839	-59.77711	1.427071
85.05436	6858.998	12.2759	-61.48228	1.502658
85.10835	6855.861	12.46529	-63.20518	1.580898
85.16234	6852.699	12.61759	-64.9433	1.66133
85.21632	6849.513	12.72724	-66.69397	1.743442
85.27031	6846.3	12.78924	-68.45452	1.826742
85.3243	6843.04	12.8024	-70.22219	1.910717
85.37829	6839.708	12.76444	-71.99429	1.994831
85.43227	6836.273	12.67513	-73.76815	2.078542
85.48626	6832.719	12.54107	-75.54127	2.161312
85.54025	6829.022	12.3752	-77.31132	2.242618
85.59423	6825.185	12.19154	-79.07618	2.321964
85.64822	6821.207	11.99801	-80.83394	2.398858
85.70221	6817.107	11.79517	-82.5829	2.472868
85.7562	6812.894	11.58216	-84.32157	2.543625
85.81018	6808.589	11.36025	-86.04869	2.610823
85.86417	6804.192	11.12629	-87.76315	2.674264
85.91816	6799.717	10.87792	-89.46396	2.73382
85.97215	6795.156	10.61928	-91.15028	2.789429
86.02613	6790.514	10.35843	-92.82134	2.841038
86.08012	6785.771	10.10833	-94.47642	2.888634
86.1341	6780.913	9.895984	-96.11479	2.932277
86.1881	6775.908	9.756059	-97.73573	2.972064
86.24208	6770.749	9.72973	-99.33844	3.008112
86.29607	6765.423	9.847006	-100.9221	3.04055
86.35005	6759.936	10.11208	-102.4857	3.069538
86.40404	6754.293	10.50699	-104.0282	3.095226
86.45803	6748.509	10.9993	-105.5486	3.117704
86.51202	6742.591	11.55173	-107.0455	3.137048
86.566	6736.548	12.12518	-108.5177	3.15331
86.61999	6730.378	12.68458	-109.964	3.166432
86.67397	6724.094	13.2117	-111.3828	3.176242
86.72797	6717.707	13.69896	-112.7729	3.182506
86.78195	6711.229	14.14213	-114.1327	3.184866
86.83594	6704.655	14.54257	-115.4609	3.182995
86.88992	6697.979	14.8991	-116.7561	3.176505
86.94391	6691.177	15.21124	-118.0169	3.164951
86.9979	6684.228	15.48711	-119.2419	3.147938
87.05189	6677.104	15.74157	-120.43	3.125154
87.10587	6669.798	15.98228	-121.5799	3.096308
87.15986	6662.315	16.20969	-122.6908	3.061152
87.21384	6654.679	16.41791	-123.7615	3.019583
87.26784	6646.921	16.60033	-124.7912	2.971697
87.32182	6639.083	16.7511	-125.7792	2.917627
87.37581	6631.2	16.87055	-126.7247	2.857539
87.42979	6623.307	16.95956	-127.6271	2.79178
87.48378	6615.419	17.01967	-128.4859	2.720709
87.53777	6607.543	17.0569	-129.3009	2.644847
87.59176	6599.676	17.07958	-130.0719	2.564556
87.64574	6591.812	17.08951	-130.7991	2.48029
87.69973	6583.938	17.08225	-131.4827	2.392499
87.75372	6576.044	17.05584	-132.1232	2.301682
87.80771	6568.132	17.01712	-132.7213	2.208354
87.86169	6560.203	16.98259	-133.2778	2.112987
87.91568	6552.258	16.9645	-133.7937	2.016239
87.96967	6544.298	16.965	-134.2701	1.918851
88.02365	6536.334	16.97368	-134.7085	1.821608
88.07764	6528.369	16.97936	-135.1102	1.725344
88.13163	6520.407	16.97359	-135.477	1.631046
88.18562	6512.459	16.95378	-135.8107	1.539856
88.2396	6504.542	16.91838	-136.1133	1.452992
88.29359	6496.661	16.86716	-136.3868	1.371716
88.34758	6488.824	16.80755	-136.6335	1.297333
88.40157	6481.037	16.7507	-136.8556	1.231086
88.45555	6473.313	16.70697	-137.0552	1.174094
88.50954	6465.657	16.67945	-137.2348	1.127232
88.56352	6458.078	16.66376	-137.3967	1.090999
88.61752	6450.576	16.65552	-137.5429	1.065507
88.6715	6443.153	16.65304	-137.6758	1.050409
88.72549	6435.803	16.65387	-137.7974	1.044954
88.77947	6428.52	16.65073	-137.9096	1.048027
88.83346	6421.286	16.63278	-138.0144	1.058368
88.88745	6414.096	16.59077	-138.1134	1.074718
88.94144	6406.937	16.52179	-138.2084	1.095921
88.99542	6399.812	16.43183	-138.3009	1.121078
89.04941	6392.714	16.32923	-138.3922	1.149598
89.10339	6385.646	16.22745	-138.4836	1.181234
89.15739	6378.592	16.14202	-138.5763	1.216088
89.21137	6371.553	16.08472	-138.6715	1.254556
89.26536	6364.521	16.05201	-138.77	1.297187
89.31934	6357.507	16.03725	-138.8729	1.344607
89.37333	6350.506	16.03409	-138.981	1.397378
89.42732	6343.531	16.0335	-139.0948	1.455875
89.48131	6336.58	16.02581	-139.2148	1.520217
89.53529	6329.66	16.0007	-139.3416	1.590171
89.58928	6322.755	15.95312	-139.4752	1.665236
89.64326	6315.857	15.87999	-139.6157	1.744599
89.69726	6308.929	15.77825	-139.7631	1.827196
89.75124	6301.956	15.6499	-139.9172	1.911809
89.80523	6294.916	15.50219	-140.0775	1.997193
89.85921	6287.812	15.34728	-140.2436	2.082064
89.9132	6280.638	15.19755	-140.4148	2.165197
89.96719	6273.409	15.06471	-140.5903	2.245466
90.02118	6266.123	14.95654	-140.7693	2.32179
90.07516	6258.794	14.88242	-140.9508	2.393207
90.12915	6251.43	14.8483	-141.1338	2.45878
90.18314	6244.04	14.85007	-141.3173	2.51762
90.23713	6236.616	14.87066	-141.5003	2.5689
90.29111	6229.154	14.89103	-141.6818	2.611811
90.3451	6221.637	14.89448	-141.8607	2.645639
90.39909	6214.055	14.87083	-142.0361	2.669713
90.45308	6206.385	14.8119	-142.2071	2.683499
90.50706	6198.618	14.71228	-142.3728	2.686532
90.56105	6190.749	14.57458	-142.5324	2.678528
90.61504	6182.784	14.40511	-142.685	2.659316
90.66902	6174.734	14.21865	-142.8299	2.628971
90.72301	6166.616	14.02811	-142.9662	2.587718
90.777	6158.441	13.84396	-143.0934	2.53594
90.83099	6150.225	13.67111	-143.2106	2.474218
90.88497	6141.97	13.51069	-143.3174	2.403275
90.93896	6133.679	13.3577	-143.4134	2.323962
90.99295	6125.351	13.19697	-143.4982	2.2372
91.04694	6116.983	13.00892	-143.5715	2.143958
91.10092	6108.566	12.78159	-143.6333	2.045239
91.15491	6100.096	12.50819	-143.6833	1.942022
91.20889	6091.576	12.18786	-143.7215	1.835306
91.26289	6083.023	11.81767	-143.7478	1.726057
91.31687	6074.454	11.40344	-143.7624	1.615214
91.37086	6065.889	10.95591	-143.7655	1.503624
91.42484	6057.351	10.49238	-143.7572	1.392051
91.47883	6048.856	10.02847	-143.7381	1.281148
91.53282	6040.424	9.584562	-143.7085	1.171516
91.58681	6032.078	9.18303	-143.6687	1.06366
91.64079	6023.834	8.840866	-143.6193	0.9580575
91.69478	6015.699	8.565876	-143.5606	0.8551899
91.74876	6007.666	8.356569	-143.4931	0.7557715
91.80276	5999.713	8.201118	-143.4172	0.6607963
91.85674	5991.823	8.082389	-143.3334	0.5720351
91.91073	5983.976	7.984344	-143.2422	0.4925713
91.96471	5976.159	7.893633	-143.1441	0.4276561
92.0187	5968.365	7.805111	-143.0397	0.385222
92.07269	5960.6	7.719543	-142.9295	0.3738839
92.12668	5952.871	7.64502	-142.8139	0.3974755
92.18066	5945.194	7.594869	-142.6934	0.4517296
92.23465	5937.582	7.590566	-142.5686	0.5283393
92.28864	5930.052	7.654245	-142.44	0.6199855
92.34263	5922.608	7.807527	-142.3082	0.7216139
92.39661	5915.254	8.061687	-142.1743	0.8295807
92.4506	5907.977	8.414886	-142.1172	0.893683
92.50459	5900.771	8.852703	-142.0751	0.9537052
92.55857	5893.615	9.347667	-142.0421	1.011974
92.61256	5886.49	9.873245	-142.013	1.070474
92.66655	5879.368	10.40316	-141.9846	1.130419
92.72054	5872.236	10.91632	-141.955	1.192382
92.77452	5865.085	11.40058	-141.9232	1.256443
92.82851	5857.932	11.84604	-141.8891	1.322425
92.8825	5850.778	12.24971	-141.8527	1.389982
92.93649	5843.638	12.61457	-141.8144	1.458728
92.99047	5836.507	12.94714	-141.7746	1.528257
93.04446	5829.396	13.26006	-141.7338	1.59818
93.09844	5822.304	13.56316	-141.6923	1.668156
93.15244	5815.241	13.8565	-141.6507	1.737838
93.20642	5808.198	14.13155	-141.6093	1.806957
93.26041	5801.179	14.38416	-141.5685	1.875259
93.31439	5794.163	14.61217	-141.5287	1.942521
93.36838	5787.15	14.81043	-141.4902	2.008553
93.42237	5780.109	14.97187	-141.4533	2.073185
93.47636	5773.006	15.09271	-141.4184	2.136295
93.53034	5765.792	15.17106	-141.3856	2.197729
93.58433	5758.447	15.21049	-141.3552	2.257412
93.63831	5750.986	15.21872	-141.3274	2.315238
93.69231	5743.423	15.21096	-141.3024	2.37115
93.74629	5735.77	15.20041	-141.2804	2.425074
93.80028	5728.058	15.19887	-141.2616	2.476974
93.85426	5720.288	15.2142	-141.2461	2.526823
93.90825	5712.45	15.24978	-141.234	2.574583
93.96224	5704.526	15.30389	-141.2255	2.620237
94.01623	5696.511	15.3717	-141.2206	2.663805
94.07021	5688.24	15.435	-141.2195	2.705276
94.1242	5680.088	15.51931	-141.2222	2.744654
94.17818	5672.031	15.61731	-141.2286	2.78196
94.23218	5664.023	15.72291	-141.2389	2.817224
94.28616	5656.04	15.83263	-141.2531	2.85045
94.34015	5648.064	15.94422	-141.2711	2.881676
94.39413	5640.089	16.05631	-141.293	2.910942
94.44812	5632.11	16.16846	-141.3187	2.938282
94.50211	5624.127	16.27999	-141.3482	2.963724
94.5561	5616.142	16.391	-141.3814	2.98733
94.61008	5608.153	16.50156	-141.4183	3.009124
94.66407	5600.163	16.6114	-141.4588	3.029168
94.71806	5592.171	16.72125	-141.5029	3.047528
94.77205	5584.178	16.8315	-141.5505	3.064228
94.82603	5576.185	16.94271	-141.6015	3.079342
94.88002	5568.194	17.05597	-141.6558	3.09292
94.93401	5560.211	17.17205	-141.7133	3.105032
94.98799	5552.24	17.29146	-141.7739	3.115744
