T[Â°C]	350nm [counts / mm]	S.D.	First derivative	S.D. of first derivative
20.00053	4145.795		-58.64306	
20.05464	4142.344		-58.62932	
20.10875	4138.896		-58.61609	
20.16286	4135.453		-58.60339	
20.21696	4132.013		-58.59123	
20.27107	4128.577		-58.57965	
20.32518	4125.146		-58.56865	
20.37929	4121.718		-58.55825	
20.43339	4118.295		-58.54848	
20.4875	4114.876		-58.53933	
20.54161	4111.461		-58.53084	
20.59572	4108.05		-58.523	
20.64982	4104.645		-58.51584	
20.70393	4101.244		-58.50936	
20.75804	4097.849		-58.50357	
20.81215	4094.461		-58.49849	
20.86625	4091.082		-58.4941	
20.92036	4087.719		-58.49043	
20.97447	4084.546		-58.48746	
21.02858	4081.416		-58.48521	
21.08268	4078.318		-58.48366	
21.13679	4075.239		-58.48281	
21.1909	4072.166		-58.48266	
21.24501	4069.09		-58.48319	
21.29911	4066		-58.48441	
21.35322	4062.886		-58.48627	
21.40733	4059.745		-58.48879	
21.46144	4056.581		-58.49192	
21.51554	4053.404		-58.49565	
21.56965	4050.227		-58.49994	
21.62376	4047.062		-58.50476	
21.67787	4043.916		-58.51006	
21.73198	4040.793		-58.51579	
21.78608	4037.694		-58.52189	
21.84019	4034.618		-58.52831	
21.8943	4031.561		-58.53497	
21.94841	4028.514		-58.54179	
22.00251	4025.465		-58.54871	
22.05662	4022.407		-58.55564	
22.11073	4019.328		-58.56251	
22.16484	4016.217		-58.56922	
22.21894	4013.066		-58.57571	
22.27305	4009.881		-58.58194	
22.32716	4006.679		-58.5879	
22.38127	4003.477		-58.59372	
22.43538	4000.293		-58.59964	
22.48948	3997.143		-58.60617	
22.54359	3994.034		-58.61409	
22.5977	3990.97		-58.62428	
22.6518	3987.953		-58.64633	
22.70591	3984.977		-58.66531	
22.76002	3982.034		-58.68079	
22.81413	3979.104		-58.69241	
22.86823	3976.161		-58.69986	
22.92234	3973.186		-58.70294	
22.97645	3970.165		-58.7015	
23.03056	3967.089		-58.6955	
23.08467	3963.953		-58.68496	
23.13877	3960.754		-58.66999	
23.19288	3957.496		-58.6507	
23.24699	3954.195		-58.62725	
23.3011	3950.869		-58.59978	
23.3552	3947.534		-58.56846	
23.40931	3944.201		-58.53347	
23.46342	3940.876		-58.49499	
23.51753	3937.555		-58.45327	
23.57163	3934.234		-58.40858	
23.62574	3930.905		-58.36119	
23.67985	3927.561		-58.31144	
23.73396	3924.198		-58.25965	
23.78806	3920.822		-58.20616	
23.84217	3917.436		-58.1513	
23.89628	3914.049		-58.09538	
23.95039	3910.671		-58.03868	
24.0045	3907.304		-57.98146	
24.0586	3903.949		-57.92397	
24.11271	3900.601		-57.86645	
24.16682	3897.252		-57.80911	
24.22093	3893.906		-57.75213	
24.27503	3890.576		-57.69569	
24.32914	3887.27		-57.63994	
24.38325	3883.997		-57.585	
24.43736	3880.758		-57.53096	
24.49146	3877.557		-57.47779	
24.54557	3874.396		-57.42543	
24.59968	3871.275		-57.37374	
24.65379	3868.191		-57.32254	
24.70789	3865.144		-57.27165	
24.762	3862.135		-57.22087	
24.81611	3859.164		-57.17	
24.87022	3856.228		-57.11887	
24.92432	3853.324		-57.06733	
24.97843	3850.449		-57.01529	
25.03254	3847.604		-56.96268	
25.08665	3844.787		-56.90951	
25.14075	3841.99		-56.85589	
25.19486	3839.2		-56.80202	
25.24897	3836.401		-56.74818	
25.30308	3833.583		-56.69473	
25.35719	3830.749		-56.64209	
25.41129	3827.904		-56.59069	
25.4654	3825.059		-56.54103	
25.51951	3822.216		-56.49356	
25.57362	3819.374		-56.44877	
25.62772	3816.524		-56.40714	
25.68183	3813.661		-56.36914	
25.73594	3810.781		-56.33525	
25.79005	3807.879		-56.3059	
25.84415	3804.951		-56.28148	
25.89826	3801.999		-56.26231	
25.95237	3799.024		-56.24866	
26.00648	3796.025		-56.24069	
26.06059	3793		-56.23849	
26.11469	3789.947		-56.24202	
26.1688	3786.862		-56.25115	
26.22291	3783.743		-56.26567	
26.27701	3780.588		-56.28531	
26.33112	3777.404		-56.30974	
26.38523	3774.2		-56.33854	
26.43934	3770.985		-56.37121	
26.49344	3767.775		-56.40715	
26.54755	3764.583		-56.44569	
26.60166	3761.418		-56.48603	
26.65577	3758.286		-56.52733	
26.70988	3755.19		-56.56868	
26.76398	3752.119		-56.60914	
26.81809	3749.061		-56.64783	
26.8722	3745.997		-56.68388	
26.92631	3742.913		-56.71648	
26.98041	3739.803		-56.74486	
27.03452	3736.673		-56.76831	
27.08863	3733.526		-56.78624	
27.14274	3730.372		-56.79815	
27.19684	3727.211		-56.80363	
27.25095	3724.048		-56.80233	
27.30506	3720.89		-56.79398	
27.35917	3717.743		-56.77844	
27.41327	3714.611		-56.75565	
27.46738	3711.494		-56.72571	
27.52149	3708.395		-56.68885	
27.5756	3705.308		-56.6454	
27.62971	3702.225		-56.59582	
27.68381	3699.133		-56.54067	
27.73792	3696.024		-56.48061	
27.79203	3692.896		-56.41635	
27.84614	3689.753		-56.34867	
27.90024	3686.603		-56.2784	
27.95435	3683.446		-56.20634	
28.00846	3680.286		-56.13331	
28.06256	3677.129		-56.06004	
28.11667	3673.985		-55.9872	
28.17078	3670.851		-55.91543	
28.22489	3667.714		-55.84529	
28.279	3664.566		-55.77728	
28.3331	3661.404		-55.71184	
28.38721	3658.233		-55.64933	
28.44132	3655.065		-55.59	
28.49543	3651.909		-55.53405	
28.54953	3648.767		-55.48151	
28.60364	3645.654		-55.43234	
28.65775	3642.583		-55.38643	
28.71186	3639.569		-55.34359	
28.76596	3636.62		-55.30365	
28.82007	3633.736		-55.26639	
28.87418	3630.904		-55.23159	
28.92829	3628.114		-55.19904	
28.9824	3625.359		-55.16855	
29.0365	3622.633		-55.1399	
29.09061	3619.93		-55.11287	
29.14472	3617.243		-55.0872	
29.19883	3614.56		-55.0626	
29.25293	3611.87		-55.03878	
29.30704	3609.168		-55.01545	
29.36115	3606.449		-54.99236	
29.41526	3603.71		-54.96935	
29.46936	3600.955		-54.94624	
29.52347	3598.191		-54.92296	
29.57758	3595.428		-54.89944	
29.63169	3592.67		-54.87568	
29.68579	3589.915		-54.85164	
29.7399	3587.16		-54.82734	
29.79401	3584.399		-54.80279	
29.84812	3581.62		-54.77805	
29.90222	3578.797		-54.75325	
29.95633	3575.907		-54.72853	
30.01044	3572.935		-54.7041	
30.06455	3569.886		-54.68016	
30.11865	3566.771		-54.65693	
30.17276	3563.602		-54.63462	
30.22687	3560.396		-54.61343	
30.28098	3557.166		-54.59354	
30.33508	3553.924		-54.57508	
30.38919	3550.68		-54.55814	
30.4433	3547.443		-54.54281	
30.49741	3544.225		-54.52907	
30.55152	3541.041		-54.51687	
30.60562	3537.9		-54.50608	
30.65973	3534.805		-54.49651	
30.71384	3531.75		-54.48787	
30.76795	3528.725		-54.47984	
30.82205	3525.718		-54.47204	
30.87616	3522.722		-54.46411	
30.93027	3519.723		-54.45568	
30.98438	3516.71		-54.44643	
31.03848	3513.677		-54.43604	
31.09259	3510.622		-54.42423	
31.1467	3507.558		-54.41079	
31.20081	3504.497		-54.39555	
31.25492	3501.451		-54.37838	
31.30902	3498.429		-54.35918	
31.36313	3495.434		-54.33786	
31.41724	3492.468		-54.31437	
31.47134	3489.527		-54.28863	
31.52545	3486.609		-54.2606	
31.57956	3483.708		-54.23023	
31.63367	3480.812		-54.19743	
31.68777	3477.912		-54.16212	
31.74188	3475.008		-54.12424	
31.79599	3472.106		-54.08377	
31.8501	3469.209		-54.04072	
31.90421	3466.318		-53.99523	
31.95831	3463.425		-53.9475	
32.01242	3460.532		-53.89786	
32.06653	3457.647		-53.84674	
32.12064	3454.779		-53.79467	
32.17474	3451.936		-53.74228	
32.22885	3449.129		-53.69021	
32.28296	3446.37		-53.63916	
32.33707	3443.658		-53.58981	
32.39117	3440.981		-53.54287	
32.44528	3438.322		-53.49896	
32.49939	3435.664		-53.45866	
32.5535	3432.988		-53.42245	
32.6076	3430.285		-53.3907	
32.66171	3427.556		-53.36367	
32.71582	3424.796		-53.34149	
32.76993	3422.009		-53.32415	
32.82404	3419.197		-53.31152	
32.87814	3416.361		-53.30341	
32.93225	3413.505		-53.29951	
32.98636	3410.629		-53.29951	
33.04047	3407.732		-53.30303	
33.09457	3404.815		-53.30972	
33.14868	3401.885		-53.3192	
33.20279	3398.949		-53.33109	
33.2569	3396.009		-53.34501	
33.311	3393.066		-53.36055	
33.36511	3390.12		-53.37735	
33.41922	3387.172		-53.39499	
33.47333	3384.219		-53.41309	
33.52744	3381.258		-53.43121	
33.58154	3378.291		-53.44889	
33.63565	3375.32		-53.46565	
33.68976	3372.349		-53.48102	
33.74387	3369.388		-53.49451	
33.79797	3366.445		-53.50562	
33.85208	3363.528		-53.51381	
33.90619	3360.639		-53.51855	
33.96029	3357.775		-53.51937	
34.0144	3354.936		-53.51585	
34.06851	3352.117		-53.50765	
34.12262	3349.314		-53.4946	
34.17672	3346.518		-53.47663	
34.23083	3343.714		-53.45379	
34.28494	3340.89		-53.42627	
34.33905	3338.042		-53.39432	
34.39315	3335.169		-53.35831	
34.44726	3332.264		-53.31866	
34.50137	3329.321		-53.27586	
34.55548	3326.328		-53.23043	
34.60958	3323.28		-53.18294	
34.66369	3320.181		-53.13399	
34.7178	3317.043		-53.08418	
34.77191	3313.891		-53.03406	
34.82602	3310.748		-52.9842	
34.88012	3307.633		-52.93508	
34.93423	3304.554		-52.8871	
34.98834	3301.507		-52.84059	
35.04245	3298.486		-52.79581	
35.09655	3295.484		-52.75291	
35.15066	3292.5		-52.71198	
35.20477	3289.534		-52.67306	
35.25888	3286.588		-52.63613	
35.31298	3283.659		-52.60116	
35.36709	3280.747		-52.56808	
35.4212	3277.856		-52.53683	
35.47531	3274.991		-52.50734	
35.52942	3272.162		-52.47952	
35.58352	3269.374		-52.45337	
35.63763	3266.636		-52.42885	
35.69174	3263.958		-52.406	
35.74585	3261.342		-52.38483	
35.79995	3258.779		-52.36531	
35.85406	3256.254		-52.34735	
35.90817	3253.75		-52.33082	
35.96228	3251.243		-52.31549	
36.01638	3248.718		-52.30115	
36.07049	3246.163		-52.28755	
36.1246	3243.575		-52.27443	
36.17871	3240.948		-52.26159	
36.23281	3238.28		-52.24881	
36.28692	3235.573		-52.23596	
36.34103	3232.845		-52.22294	
36.39514	3230.115		-52.20974	
36.44925	3227.399		-52.19641	
36.50335	3224.71		-52.1831	
36.55746	3222.047		-52.17004	
36.61157	3219.393		-52.15751	
36.66568	3216.723		-52.14586	
36.71978	3214.015		-52.13547	
36.77389	3211.251		-52.12672	
36.828	3208.429		-52.11995	
36.88211	3205.555		-52.11544	
36.93621	3202.636		-52.1134	
36.99032	3199.682		-52.11388	
37.04443	3196.702		-52.11681	
37.09854	3193.703		-52.12202	
37.15265	3190.693		-52.12923	
37.20675	3187.683		-52.1381	
37.26086	3184.686		-52.14824	
37.31497	3181.707		-52.15926	
37.36908	3178.749		-52.17073	
37.42318	3175.811		-52.18221	
37.47729	3172.891		-52.19323	
37.53139	3169.983		-52.20334	
37.5855	3167.077		-52.21212	
37.63961	3164.164		-52.21919	
37.69372	3161.244		-52.22422	
37.74783	3158.318		-52.22696	
37.80193	3155.388		-52.22714	
37.85604	3152.46		-52.22456	
37.91015	3149.542		-52.21898	
37.96426	3146.633		-52.21021	
38.01836	3143.738		-52.19803	
38.07247	3140.859		-52.18227	
38.12658	3137.998		-52.16277	
38.18069	3135.149		-52.13939	
38.23479	3132.304		-52.112	
38.2889	3129.455		-52.08052	
38.34301	3126.602		-52.04491	
38.39712	3123.746		-52.00515	
38.45123	3120.894		-51.96128	
38.50533	3118.05		-51.91341	
38.55944	3115.21		-51.86167	
38.61355	3112.378		-51.8063	
38.66766	3109.554		-51.74758	
38.72176	3106.737		-51.68586	
38.77587	3103.925		-51.62152	
38.82998	3101.115		-51.55502	
38.88409	3098.299		-51.48682	
38.93819	3095.469		-51.41741	
38.9923	3092.63		-51.34726	
39.04641	3089.794		-51.27681	
39.10052	3086.976		-51.20648	
39.15462	3084.191		-51.13665	
39.20873	3081.45		-51.06765	
39.26284	3078.758		-50.99978	
39.31695	3076.107		-50.9333	
39.37106	3073.49		-50.86843	
39.42516	3070.898		-50.80531	
39.47927	3068.331		-50.74403	
39.53338	3065.785		-50.68465	
39.58749	3063.257		-50.6272	
39.64159	3060.731		-50.57171	
39.6957	3058.19		-50.51821	
39.74981	3055.614		-50.46668	
39.80392	3052.988		-50.41708	
39.85802	3050.308		-50.36934	
39.91213	3047.582		-50.32335	
39.96624	3044.826		-50.27897	
40.02035	3042.055		-50.2361	
40.07446	3039.282		-50.19463	
40.12856	3036.515		-50.15441	
40.18267	3033.753		-50.11534	
40.23678	3030.995		-50.07728	
40.29089	3028.24		-50.0401	
40.34499	3025.494		-50.00363	
40.3991	3022.769		-49.96769	
40.45321	3020.07		-49.93211	
40.50732	3017.395		-49.89669	
40.56142	3014.734		-49.86122	
40.61553	3012.077		-49.82551	
40.66964	3009.413		-49.78938	
40.72375	3006.739		-49.75271	
40.77785	3004.059		-49.71541	
40.83196	3001.379		-49.67743	
40.88607	2998.698		-49.63878	
40.94017	2996.015		-49.59954	
40.99428	2993.33		-49.55976	
41.04839	2990.64		-49.51954	
41.1025	2987.948		-49.47894	
41.1566	2985.257		-49.438	
41.21071	2982.572		-49.39672	
41.26482	2979.895		-49.35514	
41.31893	2977.218		-49.31327	
41.37304	2974.531		-49.27111	
41.42714	2971.831		-49.22869	
41.48125	2969.106		-49.18605	
41.53536	2966.354		-49.14325	
41.58947	2963.577		-49.10039	
41.64357	2960.783		-49.05761	
41.69768	2957.984		-49.01506	
41.75179	2955.187		-48.97289	
41.8059	2952.396		-48.93126	
41.86	2949.615		-48.89029	
41.91411	2946.85		-48.85009	
41.96822	2944.101		-48.81079	
42.02233	2941.373		-48.77247	
42.07644	2938.669		-48.73524	
42.13054	2935.99		-48.6992	
42.18465	2933.333		-48.66438	
42.23876	2930.698		-48.63082	
42.29287	2928.085		-48.59853	
42.34697	2925.492		-48.5675	
42.40108	2922.925		-48.53773	
42.45519	2920.387		-48.50922	
42.5093	2917.881		-48.48199	
42.5634	2915.407		-48.45609	
42.61751	2912.963		-48.43157	
42.67162	2910.544		-48.40853	
42.72573	2908.139		-48.38706	
42.77983	2905.736		-48.36729	
42.83394	2903.32		-48.34935	
42.88805	2900.881		-48.33337	
42.94216	2898.412		-48.31947	
42.99627	2895.908		-48.30774	
43.05037	2893.373		-48.29824	
43.10448	2890.81		-48.29098	
43.15859	2888.227		-48.28593	
43.2127	2885.619		-48.28304	
43.2668	2882.988		-48.28223	
43.32091	2880.34		-48.28339	
43.37502	2877.689		-48.28641	
43.42913	2875.052		-48.29114	
43.48323	2872.44		-48.29747	
43.53734	2869.857		-48.30529	
43.59145	2867.303		-48.31456	
43.64556	2864.773		-48.32524	
43.69967	2862.251		-48.33731	
43.75377	2859.722		-48.35071	
43.80788	2857.172		-48.36536	
43.86199	2854.591		-48.38111	
43.9161	2851.98		-48.3978	
43.9702	2849.345		-48.41524	
44.02431	2846.696		-48.43323	
44.07842	2844.035		-48.45153	
44.13253	2841.362		-48.46984	
44.18663	2838.682		-48.4878	
44.24074	2836		-48.50499	
44.29485	2833.322		-48.52092	
44.34896	2830.652		-48.53508	
44.40306	2827.997		-48.54696	
44.45717	2825.354		-48.55612	
44.51128	2822.72		-48.56215	
44.56538	2820.088		-48.56469	
44.61949	2817.451		-48.56348	
44.6736	2814.799		-48.55828	
44.72771	2812.127		-48.54895	
44.78181	2809.429		-48.53541	
44.83592	2806.707		-48.51766	
44.89003	2803.961		-48.49577	
44.94414	2801.19		-48.46988	
44.99825	2798.395		-48.44017	
45.05235	2795.588		-48.4069	
45.10646	2792.79		-48.37029	
45.16057	2790.013		-48.33059	
45.21468	2787.262		-48.28802	
45.26878	2784.543		-48.24274	
45.32289	2781.856		-48.19492	
45.377	2779.197		-48.14465	
45.43111	2776.563		-48.09204	
45.48521	2773.949		-48.03722	
45.53932	2771.342		-47.9803	
45.59343	2768.733		-47.92138	
45.64754	2766.12		-47.8606	
45.70164	2763.507		-47.79808	
45.75575	2760.895		-47.73391	
45.80986	2758.282		-47.66817	
45.86397	2755.664		-47.60092	
45.91808	2753.042		-47.5323	
45.97218	2750.42		-47.46245	
46.02629	2747.804		-47.39153	
46.0804	2745.193		-47.31973	
46.13451	2742.59		-47.2472	
46.18861	2740.001		-47.1741	
46.24272	2737.434		-47.10052	
46.29683	2734.898		-47.02657	
46.35094	2732.408		-46.9523	
46.40504	2729.964		-46.87777	
46.45915	2727.556		-46.80307	
46.51326	2725.17		-46.7283	
46.56737	2722.797		-46.65359	
46.62148	2720.426		-46.57907	
46.67558	2718.052		-46.50488	
46.72969	2715.676		-46.43118	
46.7838	2713.302		-46.35818	
46.83791	2710.934		-46.28614	
46.89201	2708.571		-46.21535	
46.94612	2706.204		-46.14618	
47.00023	2703.821		-46.07898	
47.05434	2701.413		-46.01419	
47.10844	2698.978		-45.9522	
47.16255	2696.518		-45.89339	
47.21666	2694.041		-45.83809	
47.27077	2691.552		-45.78656	
47.32487	2689.053		-45.73896	
47.37898	2686.552		-45.69538	
47.43309	2684.058		-45.65585	
47.4872	2681.579		-45.62027	
47.54131	2679.108		-45.58854	
47.59541	2676.637		-45.56049	
47.64952	2674.161		-45.5359	
47.70363	2671.679		-45.51457	
47.75774	2669.191		-45.49623	
47.81184	2666.697		-45.48066	
47.86595	2664.199		-45.46763	
47.92006	2661.7		-45.45697	
47.97416	2659.207		-45.44852	
48.02827	2656.725		-45.44216	
48.08238	2654.252		-45.43776	
48.13649	2651.783		-45.43518	
48.19059	2649.311		-45.43425	
48.2447	2646.834		-45.43477	
48.29881	2644.361		-45.43652	
48.35292	2641.909		-45.43923	
48.40702	2639.489		-45.44266	
48.46113	2637.102		-45.44652	
48.51524	2634.747		-45.45051	
48.56935	2632.413		-45.45432	
48.62346	2630.082		-45.45763	
48.67756	2627.739		-45.46014	
48.73167	2625.369		-45.46161	
48.78578	2622.965		-45.46182	
48.83989	2620.524		-45.46062	
48.89399	2618.055		-45.45792	
48.9481	2615.564		-45.45364	
49.00221	2613.054		-45.44777	
49.05632	2610.526		-45.44028	
49.11042	2607.988		-45.43121	
49.16453	2605.444		-45.42056	
49.21864	2602.901		-45.40837	
49.27275	2600.359		-45.39465	
49.32685	2597.821		-45.37943	
49.38096	2595.292		-45.36268	
49.43507	2592.781		-45.34436	
49.48918	2590.287		-45.32436	
49.54329	2587.807		-45.30257	
49.59739	2585.328		-45.27886	
49.6515	2582.84		-45.2531	
49.70561	2580.342		-45.2252	
49.75972	2577.84		-45.19513	
49.81382	2575.345		-45.16293	
49.86793	2572.863		-45.12866	
49.92204	2570.401		-45.09248	
49.97615	2567.966		-45.05459	
50.03025	2565.559		-45.01523	
50.08436	2563.174		-44.97463	
50.13847	2560.801		-44.93304	
50.19258	2558.431		-44.89074	
50.24669	2556.052		-44.84798	
50.30079	2553.659		-44.80506	
50.3549	2551.247		-44.76221	
50.40901	2548.812		-44.71963	
50.46312	2546.353		-44.67748	
50.51722	2543.872		-44.63591	
50.57133	2541.374		-44.59504	
50.62544	2538.868		-44.555	
50.67955	2536.369		-44.51591	
50.73365	2533.888		-44.47789	
50.78776	2531.432		-44.44105	
50.84187	2529.003		-44.40549	
50.89598	2526.599		-44.37133	
50.95008	2524.215		-44.33861	
51.00419	2521.84		-44.30736	
51.0583	2519.464		-44.27755	
51.11241	2517.079		-44.24913	
51.16652	2514.681		-44.22199	
51.22062	2512.264		-44.19603	
51.27473	2509.829		-44.1711	
51.32884	2507.385		-44.14701	
51.38295	2504.948		-44.1235	
51.43705	2502.537		-44.10026	
51.49116	2500.167		-44.07688	
51.54527	2497.847		-44.05291	
51.59937	2495.574		-44.0279	
51.65348	2493.338		-44.00137	
51.70759	2491.128		-43.97289	
51.7617	2488.938		-43.94205	
51.8158	2486.754		-43.90851	
51.86991	2484.566		-43.87201	
51.92402	2482.364		-43.83237	
51.97813	2480.145		-43.78946	
52.03223	2477.901		-43.74323	
52.08634	2475.632		-43.69364	
52.14045	2473.335		-43.64075	
52.19456	2471.013		-43.58466	
52.24866	2468.668		-43.52556	
52.30277	2466.303		-43.46371	
52.35688	2463.926		-43.39941	
52.41099	2461.543		-43.33302	
52.4651	2459.158		-43.2649	
52.5192	2456.772		-43.19548	
52.57331	2454.382		-43.12517	
52.62742	2451.98		-43.05438	
52.68153	2449.563		-42.98353	
52.73563	2447.127		-42.91301	
52.78974	2444.666		-42.84324	
52.84385	2442.181		-42.77461	
52.89796	2439.678		-42.70751	
52.95206	2437.165		-42.64229	
53.00617	2434.649		-42.57927	
53.06028	2432.131		-42.5187	
53.11439	2429.615		-42.46081	
53.1685	2427.104		-42.40577	
53.2226	2424.598		-42.35368	
53.27671	2422.108		-42.30462	
53.33082	2419.641		-42.25856	
53.38493	2417.206		-42.21539	
53.43903	2414.81		-42.17491	
53.49314	2412.461		-42.13686	
53.54725	2410.162		-42.1009	
53.60136	2407.911		-42.06666	
53.65546	2405.704		-42.03371	
53.70957	2403.534		-42.00164	
53.76368	2401.391		-41.97004	
53.81779	2399.263		-41.93854	
53.87189	2397.144		-41.90684	
53.926	2395.031		-41.87469	
53.98011	2392.93		-41.84189	
54.03422	2390.842		-41.80828	
54.08833	2388.768		-41.7737	
54.14243	2386.71		-41.73807	
54.19654	2384.667		-41.70132	
54.25065	2382.635		-41.66349	
54.30476	2380.603		-41.62465	
54.35886	2378.558		-41.58493	
54.41297	2376.487		-41.54451	
54.46708	2374.387		-41.5036	
54.52119	2372.266		-41.46239	
54.57529	2370.135		-41.42113	
54.6294	2368.002		-41.38001	
54.68351	2365.865		-41.33928	
54.73762	2363.718		-41.29914	
54.79173	2361.555		-41.25982	
54.84583	2359.373		-41.22153	
54.89994	2357.175		-41.18448	
54.95404	2354.97		-41.14886	
55.00815	2352.759		-41.11486	
55.06226	2350.538		-41.08265	
55.11637	2348.305		-41.05238	
55.17048	2346.055		-41.02421	
55.22458	2343.781		-40.99824	
55.27869	2341.478		-40.97454	
55.3328	2339.141		-40.95314	
55.38691	2336.774		-40.93399	
55.44101	2334.385		-40.91702	
55.49512	2331.984		-40.90205	
55.54923	2329.585		-40.88889	
55.60334	2327.202		-40.87725	
55.65744	2324.844		-40.86683	
55.71155	2322.516		-40.85726	
55.76566	2320.22		-40.84821	
55.81977	2317.95		-40.83932	
55.87387	2315.698		-40.83029	
55.92798	2313.458		-40.82084	
55.98209	2311.229		-40.8107	
56.0362	2309.003		-40.79966	
56.09031	2306.77		-40.78752	
56.14441	2304.524		-40.77409	
56.19852	2302.27		-40.75923	
56.25263	2300.016		-40.74284	
56.30674	2297.769		-40.7248	
56.36084	2295.529		-40.70508	
56.41495	2293.289		-40.6836	
56.46906	2291.043		-40.66036	
56.52317	2288.798		-40.63537	
56.57727	2286.557		-40.60868	
56.63138	2284.331		-40.58031	
56.68549	2282.126		-40.55033	
56.7396	2279.945		-40.5188	
56.7937	2277.789		-40.48577	
56.84781	2275.648		-40.45131	
56.90192	2273.518		-40.41547	
56.95603	2271.392		-40.37829	
57.01014	2269.258		-40.33986	
57.06424	2267.114		-40.30029	
57.11835	2264.961		-40.25974	
57.17246	2262.808		-40.21838	
57.22657	2260.663		-40.17641	
57.28067	2258.531		-40.13398	
57.33478	2256.413		-40.09128	
57.38889	2254.309		-40.04847	
57.443	2252.224		-40.00571	
57.4971	2250.159		-39.96317	
57.55121	2248.112		-39.921	
57.60532	2246.078		-39.87934	
57.65943	2244.053		-39.8383	
57.71354	2242.03		-39.79799	
57.76764	2240.001		-39.75848	
57.82175	2237.959		-39.71987	
57.87586	2235.895		-39.6822	
57.92997	2233.804		-39.64552	
57.98407	2231.686		-39.60985	
58.03818	2229.54		-39.57523	
58.09229	2227.371		-39.54169	
58.1464	2225.181		-39.50925	
58.2005	2222.977		-39.47791	
58.25461	2220.765		-39.44766	
58.30872	2218.552		-39.41843	
58.36283	2216.344		-39.39015	
58.41693	2214.14		-39.36272	
58.47104	2211.943		-39.33603	
58.52515	2209.752		-39.30994	
58.57925	2207.566		-39.28429	
58.63336	2205.385		-39.25889	
58.68747	2203.206		-39.23352	
58.74158	2201.031		-39.2079	
58.79568	2198.86		-39.18172	
58.84979	2196.693		-39.15464	
58.9039	2194.535		-39.12627	
58.95801	2192.389		-39.09622	
59.01212	2190.256		-39.06415	
59.06622	2188.13		-39.02975	
59.12033	2186.009		-38.99275	
59.17444	2183.89		-38.9529	
59.22855	2181.769		-38.90997	
59.28265	2179.643		-38.86377	
59.33676	2177.51		-38.81414	
59.39087	2175.374		-38.761	
59.44498	2173.243		-38.70432	
59.49908	2171.125		-38.64415	
59.55319	2169.017		-38.58059	
59.6073	2166.918		-38.51382	
59.66141	2164.828		-38.44405	
59.71552	2162.745		-38.37156	
59.76962	2160.671		-38.29664	
59.82373	2158.61		-38.21964	
59.87784	2156.561		-38.14087	
59.93195	2154.523		-38.06067	
59.98605	2152.492		-37.97939	
60.04016	2150.458		-37.89737	
60.09427	2148.415		-37.81493	
60.14838	2146.357		-37.73238	
60.20248	2144.283		-37.64997	
60.25659	2142.196		-37.56791	
60.3107	2140.095		-37.48637	
60.36481	2137.984		-37.40547	
60.41891	2135.868		-37.32526	
60.47302	2133.758		-37.24577	
60.52713	2131.657		-37.16698	
60.58124	2129.571		-37.08882	
60.63535	2127.499		-37.01119	
60.68945	2125.444		-36.93394	
60.74356	2123.409		-36.85686	
60.79767	2121.394		-36.77972	
60.85178	2119.396		-36.70226	
60.90588	2117.42		-36.62419	
60.95999	2115.464		-36.54519	
61.0141	2113.528		-36.46492	
61.06821	2111.613		-36.38303	
61.12231	2109.719		-36.29916	
61.17642	2107.842		-36.21296	
61.23053	2105.983		-36.1241	
61.28464	2104.141		-36.0323	
61.33875	2102.316		-35.9373	
61.39285	2100.506		-35.83891	
61.44696	2098.712		-35.73697	
61.50107	2096.926		-35.63142	
61.55518	2095.144		-35.52223	
61.60928	2093.36		-35.40946	
61.66339	2091.575		-35.29323	
61.7175	2089.786		-35.17371	
61.77161	2087.988		-35.05117	
61.82571	2086.172		-34.92588	
61.87982	2084.333		-34.79821	
61.93393	2082.462		-34.66846	
61.98803	2080.556		-34.53703	
62.04214	2078.612		-34.40429	
62.09625	2076.632		-34.27056	
62.15036	2074.619		-34.13615	
62.20446	2072.579		-34.00129	
62.25857	2070.521		-33.86613	
62.31268	2068.448		-33.73077	
62.36679	2066.368		-33.59517	
62.42089	2064.298		-33.45923	
62.475	2062.252		-33.32273	
62.52911	2060.242		-33.18532	
62.58322	2058.272		-33.04656	
62.63733	2056.342		-32.90588	
62.69143	2054.449		-32.76259	
62.74554	2052.59		-32.61594	
62.79965	2050.764		-32.46508	
62.85376	2048.971		-32.30905	
62.90786	2047.207		-32.14684	
62.96197	2045.472		-31.97737	
63.01608	2043.76		-31.7995	
63.07019	2042.067		-31.61209	
63.12429	2040.389		-31.41398	
63.1784	2038.72		-31.20399	
63.23251	2037.059		-30.98099	
63.28662	2035.413		-30.74386	
63.34072	2033.787		-30.49157	
63.39483	2032.187		-30.22312	
63.44894	2030.616		-29.93762	
63.50305	2029.075		-29.63426	
63.55716	2027.559		-29.31228	
63.61126	2026.06		-28.97101	
63.66537	2024.569		-28.60985	
63.71948	2023.078		-28.22831	
63.77359	2021.579		-27.82595	
63.82769	2020.066		-27.40242	
63.8818	2018.536		-26.95744	
63.93591	2016.987		-26.4908	
63.99002	2015.421		-26.00235	
64.04412	2013.843		-25.49202	
64.09823	2012.255		-24.95969	
64.15234	2010.662		-24.40533	
64.20644	2009.07		-23.82893	
64.26055	2007.479		-23.23046	
64.31466	2005.892		-22.60989	
64.36877	2004.317		-21.96717	
64.42287	2002.765		-21.30219	
64.47698	2001.24		-20.61473	
64.53109	1999.743		-19.90449	
64.5852	1998.273		-19.17103	
64.63931	1996.826		-18.41379	
64.69341	1995.403		-17.63208	
64.74752	1994.007		-16.82508	
64.80163	1992.643		-15.9919	
64.85574	1991.314		-15.13152	
64.90984	1990.026		-14.24285	
64.96395	1988.79		-13.32474	
65.01806	1987.619		-12.376	
65.07217	1986.529		-11.39537	
65.12627	1985.525		-10.38159	
65.18038	1984.617		-9.333368	
65.23449	1983.813		-8.249485	
65.2886	1983.117		-7.128754	
65.3427	1982.521		-5.970055	
65.39681	1982.017		-4.772329	
65.45092	1981.6		-3.534575	
65.50503	1981.272		-2.255843	
65.55914	1981.033		-0.9352326	
65.61324	1980.882		0.4281037	
65.66735	1980.814		1.834975	
65.72146	1980.826		3.286158	
65.77557	1980.908		4.782403	
65.82967	1981.056		6.324429	
65.88378	1981.264		7.912928	
65.93789	1981.528		9.548556	
65.992	1981.841		11.23193	
66.0461	1982.206		12.96364	
66.10021	1982.629		14.74422	
66.15432	1983.117		16.57421	
66.20843	1983.674		18.45416	
66.26254	1984.303		20.38464	
66.31664	1985.009		22.36626	
66.37075	1985.802		24.39968	
66.42486	1986.692		26.48561	
66.47897	1987.685		28.62482	
66.53307	1988.785		30.81817	
66.58718	1989.995		33.06657	
66.64129	1991.317		35.37106	
66.6954	1992.759		37.73272	
66.7495	1994.329		40.15275	
66.80361	1996.031		42.6324	
66.85772	1997.862		45.17298	
66.91183	1999.817		47.77582	
66.96593	2001.899		50.44228	
67.02004	2004.116		53.17374	
67.07415	2006.478		55.9716	
67.12826	2008.997		58.83725	
67.18237	2011.682		61.77207	
67.23647	2014.542		64.77738	
67.29058	2017.577		67.85445	
67.34469	2020.785		71.00449	
67.3988	2024.166		74.22866	
67.4529	2027.719		77.52803	
67.50701	2031.44		80.90359	
67.56112	2035.323		84.3562	
67.61523	2039.369		87.88662	
67.66933	2043.575		91.49545	
67.72344	2047.936		95.1832	
67.77755	2052.451		98.95021	
67.83166	2057.128		102.7967	
67.88577	2061.977		106.7227	
67.93987	2067.01		110.7282	
67.99398	2072.243		114.813	
68.04809	2077.688		118.9766	
68.1022	2083.355		123.2186	
68.1563	2089.257		127.5385	
68.21041	2095.4		131.9355	
68.26452	2101.796		136.4091	
68.31863	2108.457		140.9583	
68.37273	2115.392		145.5824	
68.42684	2122.601		150.2802	
68.48095	2130.079		155.0509	
68.53506	2137.818		159.8933	
68.58916	2145.812		164.8062	
68.64327	2154.062		169.7883	
68.69738	2162.582		174.8385	
68.75149	2171.394		179.9551	
68.8056	2180.525		185.1369	
68.8597	2189.993		190.382	
68.91381	2199.809		195.6889	
68.96792	2209.976		201.0555	
69.02203	2220.496		206.4801	
69.07613	2231.372		211.9604	
69.13024	2242.605		217.4943	
69.18435	2254.2		223.0796	
69.23846	2266.157		228.7136	
69.29256	2278.471		234.3939	
69.34667	2291.133		240.1177	
69.40078	2304.133		245.8819	
69.45489	2317.454		251.6834	
69.509	2331.086		257.5186	
69.5631	2345.032		263.3836	
69.61721	2359.311		269.2741	
69.67132	2373.94		275.1853	
69.72543	2388.928		281.1121	
69.77953	2404.28		287.0486	
69.83364	2420		292.9885	
69.88775	2436.099		298.9249	
69.94186	2452.581		304.8504	
69.99596	2469.445		310.757	
70.05007	2486.683		316.6363	
70.10418	2504.282		322.4792	
70.15829	2522.225		328.2763	
70.21239	2540.5		334.0175	
70.2665	2559.096		339.6926	
70.32061	2578.012		345.2906	
70.37472	2597.254		350.8004	
70.42883	2616.838		356.2105	
70.48293	2636.787		361.5089	
70.53704	2657.112		366.6836	
70.59114	2677.817		371.7215	
70.64525	2698.91		376.6116	
70.69936	2720.383		381.3406	
70.75346	2742.229		385.896	
70.80757	2764.439		390.2653	
70.86168	2787		394.4361	
70.91579	2809.903		398.3961	
70.96989	2833.138		402.1338	
71.024	2856.692		405.6375	
71.07811	2880.554		408.8966	
71.13222	2904.713		411.9008	
71.18633	2929.164		414.6405	
71.24043	2953.909		417.107	
71.29454	2978.949		419.2921	
71.34865	3004.293		421.1888	
71.40276	3029.943		422.7906	
71.45686	3055.896		424.0923	
71.51097	3082.145		425.0894	
71.56508	3108.681		425.7784	
71.61919	3135.488		426.1568	
71.67329	3162.546		426.2228	
71.7274	3189.831		425.9757	
71.78151	3217.313		425.4157	
71.83562	3244.965		424.5436	
71.88972	3272.755		423.3612	
71.94383	3300.651		421.871	
71.99794	3328.613		420.0764	
72.05205	3356.598		417.9814	
72.10616	3384.561		415.5906	
72.16026	3412.454		412.9095	
72.21437	3440.224		409.9439	
72.26848	3467.817		406.7002	
72.32259	3495.168		403.1854	
72.37669	3522.215		399.4067	
72.4308	3548.897		395.3721	
72.48491	3575.16		391.0897	
72.53902	3600.953		386.5681	
72.59312	3626.238		381.8163	
72.64723	3650.979		376.8435	
72.70134	3675.144		371.6593	
72.75545	3698.696		366.2734	
72.80956	3721.599		360.6959	
72.86366	3743.81		354.937	
72.91777	3765.285		349.0073	
72.97188	3785.987		342.9173	
73.02599	3805.893		336.678	
73.08009	3824.993		330.3007	
73.1342	3843.288		323.7966	
73.18831	3860.786		317.1774	
73.24242	3877.495		310.4549	
73.29652	3893.428		303.641	
73.35063	3908.604		296.7481	
73.40474	3923.051		289.7886	
73.45885	3936.807		282.7752	
73.51295	3949.913		275.7209	
73.56706	3962.413		268.6385	
73.62117	3974.339		261.5414	
73.67528	3985.721		254.4428	
73.72939	3996.581		247.3563	
73.78349	4006.937		240.295	
73.8376	4016.806		233.2725	
73.89171	4026.21		226.302	
73.94582	4035.169		219.3964	
73.99992	4043.706		212.5685	
74.05403	4051.846		205.8308	
74.10814	4059.619		199.1949	
74.16225	4067.052		192.6721	
74.21635	4074.178		186.2729	
74.27046	4081.024		180.0072	
74.32457	4087.624		173.8841	
74.37868	4094.005		167.9116	
74.43279	4100.185		162.0972	
74.48689	4106.182		156.4473	
74.541	4112.007		150.9673	
74.59511	4117.665		145.6617	
74.64922	4123.147		140.534	
74.70332	4128.448		135.5867	
74.75743	4133.576		130.8214	
74.81154	4138.548		126.2386	
74.86565	4143.38		121.8382	
74.91975	4148.079		117.6188	
74.97386	4152.649		113.5784	
75.02797	4157.097		109.7142	
75.08208	4161.436		106.0226	
75.13618	4165.679		102.4991	
75.19029	4169.847		99.13898	
75.2444	4173.947		95.93674	
75.29851	4177.978		92.88659	
75.35262	4181.929		89.98243	
75.40672	4185.795		87.21798	
75.46083	4189.567		84.58681	
75.51494	4193.247		82.0825	
75.56905	4196.827		79.69859	
75.62315	4200.307		77.42876	
75.67726	4203.689		75.26688	
75.73137	4206.987		73.20702	
75.78548	4210.207		71.24354	
75.83958	4213.359		69.37106	
75.89369	4216.451		67.58451	
75.9478	4219.491		65.87904	
76.00191	4222.488		64.25006	
76.05602	4225.452		62.69326	
76.11012	4228.396		61.20454	
76.16423	4231.33		59.78002	
76.21834	4234.254		58.41603	
76.27245	4237.173		57.10906	
76.32655	4240.081		55.85574	
76.38066	4242.965		54.6528	
76.43477	4245.814		53.49705	
76.48888	4248.625		52.38531	
76.54298	4251.402		51.31441	
76.59709	4254.16		50.28121	
76.6512	4256.894		49.28259	
76.70531	4259.597		48.31551	
76.75941	4262.262		47.37697	
76.81352	4264.89		46.46406	
76.86763	4267.478		45.57391	
76.92174	4270.019		44.70376	
76.97585	4272.502		43.85095	
77.02995	4274.912		43.0129	
77.08406	4277.223		42.18713	
77.13817	4279.417		41.37128	
77.19228	4281.49		40.56313	
77.24638	4283.436		39.76064	
77.30049	4285.251		38.96202	
77.3546	4286.937		38.1657	
77.40871	4288.503		37.37036	
77.46281	4289.97		36.57492	
77.51692	4291.365		35.77858	
77.57102	4292.705		34.98092	
77.62513	4294.003		34.18149	
77.67924	4295.275		33.38051	
77.73335	4296.541		32.57843	
77.78745	4297.818		31.77604	
77.84156	4299.131		30.97447	
77.89567	4300.501		30.1752	
77.94978	4301.937		29.37995	
78.00388	4303.431		28.59068	
78.05799	4304.977		27.80958	
78.1121	4306.564		27.039	
78.16621	4308.19		26.28144	
78.22031	4309.858		25.53951	
78.27442	4311.569		24.81583	
78.32853	4313.324		24.11305	
78.38264	4315.117		23.43377	
78.43674	4316.929		22.78048	
78.49085	4318.741		22.15553	
78.54496	4320.536		21.56114	
78.59907	4322.297		20.99932	
78.65318	4324.007		20.47188	
78.70728	4325.644		19.98044	
78.76139	4327.184		19.52636	
78.8155	4328.601		19.11074	
78.86961	4329.873		18.73443	
78.92371	4330.984		18.39804	
78.97782	4331.928		18.10193	
79.03193	4332.697		17.84626	
79.08604	4333.294		17.63093	
79.14014	4333.73		17.45566	
79.19425	4334.025		17.31999	
79.24836	4334.202		17.22329	
79.30247	4334.276		17.16478	
79.35658	4334.262		17.14351	
79.41068	4334.177		17.15841	
79.46479	4334.048		17.20829	
79.5189	4333.901		17.29186	
79.57301	4333.754		17.4078	
79.62711	4333.61		17.55476	
79.68122	4333.462		17.73142	
79.73533	4333.302		17.93649	
79.78944	4333.139		18.16881	
79.84354	4332.987		18.42729	
79.89765	4332.872		18.71098	
79.95176	4332.803		19.01901	
80.00587	4332.8		19.35066	
80.05997	4332.866		19.70526	
80.11408	4333.019		20.0823	
80.16819	4333.27		20.48135	
80.2223	4333.633		20.90202	
80.27641	4334.122		21.34399	
80.33051	4334.751		21.80692	
80.38462	4335.527		22.29049	
80.43873	4336.448		22.79426	
80.49284	4337.493		23.31775	
80.54694	4338.643		23.86036	
80.60105	4339.879		24.42134	
80.65516	4341.188		24.99978	
80.70927	4342.562		25.59456	
80.76337	4344.002		26.20439	
80.81748	4345.517		26.82776	
80.87159	4347.13		27.46302	
80.9257	4348.864		28.10829	
80.9798	4350.729		28.76151	
81.03391	4352.72		29.42044	
81.08802	4354.83		30.08264	
81.14213	4357.057		30.74549	
81.19624	4359.399		31.40624	
81.25034	4361.851		32.06202	
81.30445	4364.395		32.70984	
81.35856	4367.002		33.34664	
81.41267	4369.647		33.9693	
81.46677	4372.309		34.57471	
81.52088	4374.984		35.15974	
81.57499	4377.675		35.72134	
81.6291	4380.376		36.25648	
81.6832	4383.079		36.76223	
81.73731	4385.78		37.23571	
81.79142	4388.481		37.67412	
81.84553	4391.186		38.0748	
81.89964	4393.898		38.43523	
81.95374	4396.609		38.75303	
82.00785	4399.309		39.02603	
82.06196	4401.983		39.25227	
82.11607	4404.621		39.43007	
82.17017	4407.203		39.55803	
82.22428	4409.718		39.63506	
82.27839	4412.16		39.66037	
82.3325	4414.532		39.63343	
82.3866	4416.846		39.55397	
82.44071	4419.119		39.42197	
82.49482	4421.367		39.23771	
82.54893	4423.611		39.00167	
82.60303	4425.865		38.71455	
82.65714	4428.139		38.37725	
82.71125	4430.433		37.9908	
82.76536	4432.741		37.55643	
82.81947	4435.049		37.07549	
82.87357	4437.352		36.54943	
82.92768	4439.643		35.97977	
82.98179	4441.917		35.36811	
83.0359	4444.165		34.71608	
83.09	4446.379		34.02534	
83.14411	4448.546		33.29762	
83.19822	4450.671		32.53466	
83.25233	4452.763		31.73821	
83.30643	4454.841		30.90999	
83.36054	4456.917		30.05172	
83.41465	4459.002		29.16507	
83.46876	4461.078		28.25167	
83.52287	4463.131		27.31312	
83.57697	4465.133		26.35094	
83.63108	4467.063		25.36656	
83.68519	4468.907		24.36129	
83.7393	4470.654		23.33624	
83.7934	4472.284		22.29239	
83.84751	4473.792		21.23055	
83.90162	4475.173		20.15136	
83.95573	4476.433		19.05533	
84.00983	4477.579		17.9428	
84.06394	4478.629		16.81404	
84.11805	4479.593		15.66922	
84.17216	4480.48		14.50848	
84.22626	4481.292		13.33194	
84.28037	4482.033		12.1397	
84.33448	4482.692		10.93187	
84.38859	4483.261		9.708604	
84.4427	4483.725		8.470086	
84.4968	4484.077		7.216601	
84.5509	4484.312		5.948706	
84.60501	4484.432		4.666525	
84.65912	4484.439		3.370785	
84.71323	4484.349		2.06209	
84.76733	4484.173		0.7410688	
84.82144	4483.923		-0.5916194	
84.87555	4483.608		-1.935291	
84.92966	4483.249		-3.289208	
84.98376	4482.855		-4.652596	
85.03787	4482.44		-6.02464	
85.09198	4481.998		-7.404486	
85.14609	4481.52		-8.791226	
85.2002	4480.988		-10.18389	
85.2543	4480.389		-11.58142	
85.30841	4479.711		-12.98272	
85.36252	4478.954		-14.38662	
85.41663	4478.116		-15.79188	
85.47073	4477.201		-17.1972	
85.52484	4476.209		-18.60119	
85.57895	4475.136		-20.00242	
85.63306	4473.986		-21.39944	
85.68716	4472.773		-22.79079	
85.74127	4471.509		-24.17507	
85.79538	4470.199		-25.55093	
85.84949	4468.838		-26.91714	
85.90359	4467.419		-28.27255	
85.9577	4465.934		-29.61607	
86.01181	4464.374		-30.94671	
86.06592	4462.734		-32.2635	
86.12003	4461.006		-33.56556	
86.17413	4459.182		-34.85208	
86.22824	4457.253		-36.1223	
86.28235	4455.217		-37.37553	
86.33646	4453.08		-38.61108	
86.39056	4450.848		-39.82824	
86.44467	4448.526		-41.02625	
86.49878	4446.121		-42.20436	
86.55289	4443.639		-43.36177	
86.60699	4441.092		-44.49769	
86.6611	4438.487		-45.61138	
86.71521	4435.832		-46.70209	
86.76932	4433.124		-47.76911	
86.82343	4430.356		-48.81175	
86.87753	4427.525		-49.82936	
86.93164	4424.623		-50.82133	
86.98575	4421.637		-51.78715	
87.03986	4418.56		-52.72639	
87.09396	4415.383		-53.63874	
87.14807	4412.106		-54.52401	
87.20218	4408.721		-55.38208	
87.25629	4405.227		-56.21288	
87.31039	4401.623		-57.0164	
87.3645	4397.92		-57.79261	
87.41861	4394.133		-58.54154	
87.47272	4390.286		-59.26322	
87.52682	4386.391		-59.95772	
87.58093	4382.454		-60.62512	
87.63504	4378.476		-61.26549	
87.68915	4374.468		-61.87892	
87.74326	4370.439		-62.46558	
87.79736	4366.406		-63.0257	
87.85147	4362.371		-63.55964	
87.90558	4358.341		-64.06776	
87.95969	4354.319		-64.55054	
88.01379	4350.319		-65.00845	
88.0679	4346.342		-65.44203	
88.12201	4342.393		-65.85195	
88.17612	4338.468		-66.23895	
88.23022	4334.57		-66.6039	
88.28433	4330.691		-66.94772	
88.33844	4326.828		-67.27135	
88.39255	4322.963		-67.57583	
88.44666	4319.095		-67.8622	
88.50076	4315.217		-68.13158	
88.55487	4311.34		-68.3851	
88.60898	4307.467		-68.62397	
88.66309	4303.606		-68.84933	
88.71719	4299.76		-69.06234	
88.7713	4295.936		-69.26408	
88.82541	4292.144		-69.45567	
88.87952	4288.399		-69.6382	
88.93362	4284.702		-69.81286	
88.98773	4281.051		-69.98084	
89.04184	4277.437		-70.14341	
89.09595	4273.854		-70.30188	
89.15005	4270.292		-70.45762	
89.20416	4266.736		-70.61201	
89.25827	4263.172		-70.7664	
89.31238	4259.594		-70.92215	
89.36649	4255.997		-71.08051	
89.42059	4252.389		-71.24269	
89.4747	4248.775		-71.40985	
89.52881	4245.163		-71.58303	
89.58292	4241.549		-71.76317	
89.63702	4237.929		-71.95107	
89.69113	4234.304		-72.14739	
89.74524	4230.687		-72.35268	
89.79935	4227.082		-72.56734	
89.85345	4223.485		-72.7916	
89.90756	4219.885		-73.02559	
89.96167	4216.26		-73.2693	
90.01578	4212.591		-73.52264	
90.06989	4208.862		-73.78539	
90.12399	4205.067		-74.05725	
90.1781	4201.212		-74.33783	
90.23221	4197.305		-74.62671	
90.28632	4193.348		-74.92346	
90.34042	4189.336		-75.22767	
90.39453	4185.272		-75.5389	
90.44864	4181.166		-75.85677	
90.50275	4177.033		-76.18085	
90.55685	4172.898		-76.5107	
90.61096	4168.775		-76.84586	
90.66507	4164.662		-77.18577	
90.71918	4160.542		-77.52974	
90.77328	4156.402		-77.87704	
90.82739	4152.227		-78.2269	
90.8815	4148.008		-78.57845	
90.93561	4143.742		-78.9308	
90.98972	4139.428		-79.28298	
91.04382	4135.067		-79.63401	
91.09793	4130.661		-79.98289	
91.15204	4126.207		-80.32868	
91.20615	4121.708		-80.6704	
91.26025	4117.172		-81.00714	
91.31436	4112.603		-81.33797	
91.36847	4107.994		-81.66209	
91.42258	4103.34		-81.9788	
91.47668	4098.638		-82.28749	
91.53078	4093.896		-82.58759	
91.58489	4089.109		-82.87861	
91.639	4084.279		-83.15992	
91.69311	4079.4		-83.43091	
91.74722	4074.485		-83.69091	
91.80132	4069.55		-83.93927	
91.85543	4064.625		-84.17538	
91.90954	4059.729		-84.39867	
91.96365	4054.881		-84.60857	
92.01775	4050.081		-84.80457	
92.07186	4045.331		-84.98618	
92.12597	4040.623		-85.15295	
92.18008	4035.958		-85.3045	
92.23418	4031.32		-85.44058	
92.28829	4026.695		-85.56103	
92.3424	4022.058		-85.66585	
92.39651	4017.396		-85.75516	
92.45061	4012.693		-85.71819	
92.50472	4007.955		-85.67248	
92.55883	4003.19		-85.62091	
92.61294	3998.413		-85.56587	
92.66705	3993.634		-85.50895	
92.72115	3988.87		-85.45104	
92.77526	3984.13		-85.39258	
92.82937	3979.42		-85.33372	
92.88348	3974.732		-85.27446	
92.93758	3970.056		-85.21471	
92.99169	3965.371		-85.15437	
93.0458	3960.663		-85.09328	
93.09991	3955.911		-85.03136	
93.15401	3951.111		-84.96845	
93.20812	3946.269		-84.9045	
93.26223	3941.409		-84.83938	
93.31634	3936.54		-84.77303	
93.37045	3931.68		-84.70541	
93.42455	3926.838		-84.63643	
93.47866	3922.037		-84.56605	
93.53277	3917.296		-84.49422	
93.58688	3912.638		-84.42091	
93.64098	3908.065		-84.34608	
93.69509	3903.561		-84.26969	
93.7492	3899.108		-84.19172	
93.80331	3894.697		-84.11214	
93.85741	3890.308		-84.03095	
93.91152	3885.917		-83.94812	
93.96563	3881.491		-83.86365	
94.01974	3877.009		-83.77752	
94.07384	3872.476		-83.68972	
94.12795	3867.887		-83.60025	
94.18206	3863.39		-83.5091	
94.23617	3858.968		-83.41628	
94.29028	3854.596		-83.32178	
94.34438	3850.259		-83.22563	
94.39849	3845.944		-83.12785	
94.4526	3841.642		-83.02846	
94.50671	3837.348		-82.92749	
94.56081	3833.055		-82.82497	
94.61492	3828.759		-82.72093	
94.66903	3824.458		-82.61542	
94.72314	3820.15		-82.50847	
94.77724	3815.833		-82.40012	
94.83135	3811.507		-82.29043	
94.88546	3807.173		-82.17943	
94.93957	3802.835		-82.06718	
94.99368	3798.498		-81.95371	
