T[Â°C]	330nm [counts / mm]	S.D.	First derivative	S.D. of first derivative
20.00053	4744.643		-63.15719	
20.05464	4741.354		-63.18521	
20.10875	4738.052		-63.21302	
20.16286	4734.738		-63.24059	
20.21696	4731.411		-63.26792	
20.27107	4728.07		-63.29502	
20.32518	4724.715		-63.32187	
20.37929	4721.349		-63.34848	
20.43339	4717.972		-63.37485	
20.4875	4714.587		-63.40097	
20.54161	4711.197		-63.42685	
20.59572	4707.806		-63.45249	
20.64982	4704.416		-63.47789	
20.70393	4701.03		-63.50307	
20.75804	4697.652		-63.52802	
20.81215	4694.285		-63.55276	
20.86625	4690.928		-63.5773	
20.92036	4687.562		-63.60164	
20.97447	4684.124		-63.62581	
21.02858	4680.675		-63.64983	
21.08268	4677.195		-63.67371	
21.13679	4673.677		-63.69746	
21.1909	4670.123		-63.72113	
21.24501	4666.544		-63.74472	
21.29911	4662.955		-63.76826	
21.35322	4659.365		-63.79178	
21.40733	4655.783		-63.8153	
21.46144	4652.218		-63.83883	
21.51554	4648.674		-63.86238	
21.56965	4645.149		-63.88597	
21.62376	4641.648		-63.9096	
21.67787	4638.176		-63.93327	
21.73198	4634.734		-63.95697	
21.78608	4631.318		-63.98071	
21.84019	4627.917		-64.00445	
21.8943	4624.524		-64.02818	
21.94841	4621.14		-64.0519	
22.00251	4617.762		-64.07557	
22.05662	4614.387		-64.09917	
22.11073	4611.007		-64.1227	
22.16484	4607.602		-64.14609	
22.21894	4604.149		-64.16933	
22.27305	4600.637		-64.19232	
22.32716	4597.072		-64.21497	
22.38127	4593.48		-64.23707	
22.43538	4589.889		-64.25835	
22.48948	4586.326		-64.27837	
22.54359	4582.804		-64.29659	
22.5977	4579.33		-64.31232	
22.6518	4575.899		-64.31337	
22.70591	4572.499		-64.31122	
22.76002	4569.108		-64.30579	
22.81413	4565.709		-64.29707	
22.86823	4562.292		-64.28507	
22.92234	4558.852		-64.26984	
22.97645	4555.388		-64.25146	
23.03056	4551.904		-64.23003	
23.08467	4548.403		-64.2057	
23.13877	4544.88		-64.17863	
23.19288	4541.332		-64.149	
23.24699	4537.763		-64.11705	
23.3011	4534.188		-64.08299	
23.3552	4530.617		-64.04704	
23.40931	4527.05		-64.00941	
23.46342	4523.494		-63.97029	
23.51753	4519.955		-63.92984	
23.57163	4516.44		-63.88822	
23.62574	4512.952		-63.84559	
23.67985	4509.488		-63.80209	
23.73396	4506.044		-63.75787	
23.78806	4502.615		-63.71308	
23.84217	4499.188		-63.66782	
23.89628	4495.758		-63.62218	
23.95039	4492.324		-63.57619	
24.0045	4488.886		-63.52989	
24.0586	4485.448		-63.48335	
24.11271	4482.007		-63.4366	
24.16682	4478.557		-63.38974	
24.22093	4475.092		-63.34285	
24.27503	4471.602		-63.29598	
24.32914	4468.081		-63.24919	
24.38325	4464.534		-63.20251	
24.43736	4460.977		-63.15601	
24.49146	4457.43		-63.10978	
24.54557	4453.909		-63.06391	
24.59968	4450.419		-63.0185	
24.65379	4446.965		-62.97366	
24.70789	4443.552		-62.92953	
24.762	4440.176		-62.8862	
24.81611	4436.835		-62.8438	
24.87022	4433.523		-62.80239	
24.92432	4430.228		-62.76209	
24.97843	4426.938		-62.723	
25.03254	4423.652		-62.68524	
25.08665	4420.369		-62.64893	
25.14075	4417.082		-62.61422	
25.19486	4413.786		-62.58127	
25.24897	4410.479		-62.5503	
25.30308	4407.164		-62.52156	
25.35719	4403.852		-62.4953	
25.41129	4400.56		-62.47175	
25.4654	4397.299		-62.45111	
25.51951	4394.073		-62.43354	
25.57362	4390.873		-62.41918	
25.62772	4387.688		-62.40813	
25.68183	4384.499		-62.40049	
25.73594	4381.286		-62.39632	
25.79005	4378.022		-62.39562	
25.84415	4374.692		-62.39835	
25.89826	4371.292		-62.40442	
25.95237	4367.834		-62.41368	
26.00648	4364.346		-62.42595	
26.06059	4360.852		-62.44101	
26.11469	4357.367		-62.45862	
26.1688	4353.903		-62.4785	
26.22291	4350.462		-62.5003	
26.27701	4347.042		-62.52365	
26.33112	4343.637		-62.54816	
26.38523	4340.243		-62.57339	
26.43934	4336.856		-62.59893	
26.49344	4333.48		-62.62434	
26.54755	4330.117		-62.64912	
26.60166	4326.772		-62.67275	
26.65577	4323.447		-62.69465	
26.70988	4320.14		-62.71422	
26.76398	4316.839		-62.73086	
26.81809	4313.542		-62.74401	
26.8722	4310.243		-62.75319	
26.92631	4306.937		-62.75801	
26.98041	4303.609		-62.75819	
27.03452	4300.258		-62.75351	
27.08863	4296.886		-62.74382	
27.14274	4293.5		-62.72898	
27.19684	4290.098		-62.70892	
27.25095	4286.667		-62.68356	
27.30506	4283.197		-62.65287	
27.35917	4279.683		-62.61686	
27.41327	4276.132		-62.57557	
27.46738	4272.555		-62.52913	
27.52149	4268.963		-62.4777	
27.5756	4265.371		-62.42147	
27.62971	4261.795		-62.36068	
27.68381	4258.248		-62.29552	
27.73792	4254.731		-62.22623	
27.79203	4251.238		-62.15301	
27.84614	4247.755		-62.07608	
27.90024	4244.274		-61.99569	
27.95435	4240.788		-61.91214	
28.00846	4237.292		-61.82579	
28.06256	4233.786		-61.73706	
28.11667	4230.275		-61.64638	
28.17078	4226.76		-61.55416	
28.22489	4223.24		-61.4608	
28.279	4219.724		-61.36665	
28.3331	4216.231		-61.27202	
28.38721	4212.781		-61.17719	
28.44132	4209.384		-61.08238	
28.49543	4206.04		-60.98777	
28.54953	4202.742		-60.89347	
28.60364	4199.472		-60.7996	
28.65775	4196.224		-60.70623	
28.71186	4192.999		-60.61344	
28.76596	4189.8		-60.5213	
28.82007	4186.631		-60.42994	
28.87418	4183.489		-60.33951	
28.92829	4180.368		-60.25022	
28.9824	4177.261		-60.16233	
29.0365	4174.166		-60.07609	
29.09061	4171.088		-59.99181	
29.14472	4168.029		-59.90977	
29.19883	4164.984		-59.83029	
29.25293	4161.939		-59.75367	
29.30704	4158.889		-59.68021	
29.36115	4155.833		-59.61023	
29.41526	4152.771		-59.54397	
29.46936	4149.691		-59.48166	
29.52347	4146.593		-59.42336	
29.57758	4143.487		-59.36908	
29.63169	4140.384		-59.31869	
29.68579	4137.29		-59.272	
29.7399	4134.201		-59.22872	
29.79401	4131.114		-59.18855	
29.84812	4128.021		-59.15115	
29.90222	4124.912		-59.11628	
29.95633	4121.786		-59.08371	
30.01044	4118.651		-59.05332	
30.06455	4115.514		-59.02496	
30.11865	4112.384		-58.99854	
30.17276	4109.262		-58.9739	
30.22687	4106.147		-58.9509	
30.28098	4103.033		-58.92936	
30.33508	4099.914		-58.90905	
30.38919	4096.784		-58.88976	
30.4433	4093.649		-58.87123	
30.49741	4090.51		-58.85329	
30.55152	4087.359		-58.83569	
30.60562	4084.183		-58.81821	
30.65973	4080.98		-58.80058	
30.71384	4077.754		-58.78251	
30.76795	4074.509		-58.76376	
30.82205	4071.249		-58.74406	
30.87616	4067.976		-58.72324	
30.93027	4064.694		-58.70111	
30.98438	4061.408		-58.67754	
31.03848	4058.118		-58.65249	
31.09259	4054.825		-58.62598	
31.1467	4051.527		-58.5981	
31.20081	4048.215		-58.56906	
31.25492	4044.875		-58.53909	
31.30902	4041.505		-58.50852	
31.36313	4038.113		-58.47763	
31.41724	4034.699		-58.44669	
31.47134	4031.274		-58.41587	
31.52545	4027.849		-58.38527	
31.57956	4024.434		-58.35489	
31.63367	4021.034		-58.32467	
31.68777	4017.66		-58.29445	
31.74188	4014.328		-58.26403	
31.79599	4011.056		-58.23315	
31.8501	4007.848		-58.20154	
31.90421	4004.693		-58.16892	
31.95831	4001.582		-58.13507	
32.01242	3998.503		-58.09976	
32.06653	3995.447		-58.06283	
32.12064	3992.408		-58.02422	
32.17474	3989.381		-57.98395	
32.22885	3986.367		-57.9421	
32.28296	3983.37		-57.89885	
32.33707	3980.389		-57.85442	
32.39117	3977.425		-57.80908	
32.44528	3974.471		-57.76315	
32.49939	3971.523		-57.71694	
32.5535	3968.576		-57.67079	
32.6076	3965.633		-57.625	
32.66171	3962.702		-57.57984	
32.71582	3959.788		-57.53552	
32.76993	3956.887		-57.49221	
32.82404	3953.986		-57.45003	
32.87814	3951.07		-57.40903	
32.93225	3948.13		-57.36922	
32.98636	3945.16		-57.33056	
33.04047	3942.156		-57.29302	
33.09457	3939.122		-57.25653	
33.14868	3936.071		-57.22106	
33.20279	3933.013		-57.18665	
33.2569	3929.945		-57.15337	
33.311	3926.854		-57.12136	
33.36511	3923.738		-57.09074	
33.41922	3920.602		-57.06164	
33.47333	3917.456		-57.03419	
33.52744	3914.314		-57.00853	
33.58154	3911.174		-56.98473	
33.63565	3908.033		-56.96284	
33.68976	3904.886		-56.94283	
33.74387	3901.732		-56.92456	
33.79797	3898.574		-56.90781	
33.85208	3895.417		-56.89228	
33.90619	3892.266		-56.87757	
33.96029	3889.126		-56.86325	
34.0144	3886.003		-56.84884	
34.06851	3882.903		-56.8339	
34.12262	3879.823		-56.81803	
34.17672	3876.753		-56.80085	
34.23083	3873.684		-56.78206	
34.28494	3870.61		-56.76142	
34.33905	3867.532		-56.73875	
34.39315	3864.455		-56.71395	
34.44726	3861.377		-56.68698	
34.50137	3858.29		-56.65796	
34.55548	3855.181		-56.62713	
34.60958	3852.034		-56.59483	
34.66369	3848.84		-56.56147	
34.7178	3845.604		-56.52751	
34.77191	3842.341		-56.49337	
34.82602	3839.073		-56.45944	
34.88012	3835.821		-56.42602	
34.93423	3832.602		-56.3933	
34.98834	3829.418		-56.36135	
35.04245	3826.261		-56.33017	
35.09655	3823.122		-56.29967	
35.15066	3820.005		-56.26975	
35.20477	3816.916		-56.24031	
35.25888	3813.854		-56.21124	
35.31298	3810.815		-56.18246	
35.36709	3807.792		-56.15389	
35.4212	3804.78		-56.12549	
35.47531	3801.778		-56.09726	
35.52942	3798.788		-56.06923	
35.58352	3795.819		-56.04148	
35.63763	3792.877		-56.01409	
35.69174	3789.97		-55.98717	
35.74585	3787.094		-55.96078	
35.79995	3784.246		-55.93496	
35.85406	3781.417		-55.9097	
35.90817	3778.602		-55.88496	
35.96228	3775.789		-55.8607	
36.01638	3772.971		-55.83684	
36.07049	3770.148		-55.81324	
36.1246	3767.323		-55.78975	
36.17871	3764.494		-55.76612	
36.23281	3761.652		-55.74212	
36.28692	3758.784		-55.71749	
36.34103	3755.881		-55.69201	
36.39514	3752.94		-55.66546	
36.44925	3749.967		-55.63776	
36.50335	3746.974		-55.60886	
36.55746	3743.977		-55.57885	
36.61157	3740.986		-55.54789	
36.66568	3737.998		-55.51624	
36.71978	3735.006		-55.48416	
36.77389	3731.999		-55.45192	
36.828	3728.973		-55.41975	
36.88211	3725.935		-55.38783	
36.93621	3722.891		-55.35627	
36.99032	3719.839		-55.32513	
37.04443	3716.774		-55.29442	
37.09854	3713.68		-55.26412	
37.15265	3710.549		-55.23416	
37.20675	3707.381		-55.20442	
37.26086	3704.183		-55.17474	
37.31497	3700.969		-55.14494	
37.36908	3697.766		-55.11486	
37.42318	3694.591		-55.0843	
37.47729	3691.46		-55.05307	
37.53139	3688.377		-55.02099	
37.5855	3685.337		-54.98786	
37.63961	3682.327		-54.95352	
37.69372	3679.33		-54.91782	
37.74783	3676.329		-54.88065	
37.80193	3673.315		-54.84195	
37.85604	3670.284		-54.80167	
37.91015	3667.24		-54.75979	
37.96426	3664.186		-54.71634	
38.01836	3661.125		-54.67134	
38.07247	3658.059		-54.62482	
38.12658	3654.995		-54.57678	
38.18069	3651.947		-54.52723	
38.23479	3648.935		-54.47616	
38.2889	3645.973		-54.42361	
38.34301	3643.07		-54.36965	
38.39712	3640.218		-54.31441	
38.45123	3637.403		-54.25808	
38.50533	3634.601		-54.20082	
38.55944	3631.795		-54.14288	
38.61355	3628.977		-54.08446	
38.66766	3626.14		-54.02583	
38.72176	3623.271		-53.96726	
38.77587	3620.367		-53.90905	
38.82998	3617.43		-53.8515	
38.88409	3614.47		-53.79493	
38.93819	3611.502		-53.73968	
38.9923	3608.546		-53.6861	
39.04641	3605.626		-53.63458	
39.10052	3602.76		-53.58546	
39.15462	3599.958		-53.5391	
39.20873	3597.214		-53.4958	
39.26284	3594.513		-53.45582	
39.31695	3591.837		-53.41939	
39.37106	3589.17		-53.38672	
39.42516	3586.5		-53.35796	
39.47927	3583.826		-53.33321	
39.53338	3581.141		-53.31247	
39.58749	3578.434		-53.29566	
39.64159	3575.695		-53.28262	
39.6957	3572.918		-53.27318	
39.74981	3570.102		-53.26711	
39.80392	3567.246		-53.26416	
39.85802	3564.351		-53.26405	
39.91213	3561.423		-53.26648	
39.96624	3558.481		-53.27111	
40.02035	3555.541		-53.27757	
40.07446	3552.613		-53.28545	
40.12856	3549.7		-53.2943	
40.18267	3546.8		-53.30364	
40.23678	3543.9		-53.31295	
40.29089	3540.994		-53.32174	
40.34499	3538.083		-53.32952	
40.3991	3535.171		-53.3358	
40.45321	3532.264		-53.34015	
40.50732	3529.354		-53.34208	
40.56142	3526.438		-53.34112	
40.61553	3523.523		-53.33684	
40.66964	3520.613		-53.32888	
40.72375	3517.71		-53.31697	
40.77785	3514.813		-53.30095	
40.83196	3511.918		-53.28072	
40.88607	3509.016		-53.25627	
40.94017	3506.108		-53.22762	
40.99428	3503.199		-53.19482	
41.04839	3500.291		-53.158	
41.1025	3497.384		-53.1173	
41.1566	3494.471		-53.0729	
41.21071	3491.546		-53.02498	
41.26482	3488.6		-52.97373	
41.31893	3485.627		-52.91933	
41.37304	3482.629		-52.86196	
41.42714	3479.612		-52.80186	
41.48125	3476.583		-52.73929	
41.53536	3473.544		-52.67453	
41.58947	3470.492		-52.60788	
41.64357	3467.433		-52.53968	
41.69768	3464.376		-52.4703	
41.75179	3461.341		-52.4001	
41.8059	3458.337		-52.32947	
41.86	3455.365		-52.25879	
41.91411	3452.418		-52.18848	
41.96822	3449.481		-52.11891	
42.02233	3446.551		-52.05045	
42.07644	3443.636		-51.98333	
42.13054	3440.746		-51.91774	
42.18465	3437.89		-51.85374	
42.23876	3435.069		-51.79129	
42.29287	3432.283		-51.73032	
42.34697	3429.53		-51.67071	
42.40108	3426.814		-51.61234	
42.45519	3424.136		-51.55509	
42.5093	3421.487		-51.49886	
42.5634	3418.862		-51.44358	
42.61751	3416.26		-51.38927	
42.67162	3413.685		-51.33599	
42.72573	3411.14		-51.28392	
42.77983	3408.622		-51.23328	
42.83394	3406.117		-51.18434	
42.88805	3403.609		-51.13737	
42.94216	3401.088		-51.09261	
42.99627	3398.556		-51.0503	
43.05037	3396.019		-51.01062	
43.10448	3393.483		-50.97372	
43.15859	3390.946		-50.93972	
43.2127	3388.391		-50.90865	
43.2668	3385.798		-50.88049	
43.32091	3383.158		-50.85514	
43.37502	3380.472		-50.8324	
43.42913	3377.754		-50.81208	
43.48323	3375.017		-50.79398	
43.53734	3372.272		-50.77797	
43.59145	3369.518		-50.76395	
43.64556	3366.753		-50.75188	
43.69967	3363.977		-50.74171	
43.75377	3361.19		-50.73341	
43.80788	3358.404		-50.72696	
43.86199	3355.631		-50.72234	
43.9161	3352.872		-50.71956	
43.9702	3350.115		-50.71861	
44.02431	3347.352		-50.71941	
44.07842	3344.572		-50.72183	
44.13253	3341.766		-50.72561	
44.18663	3338.931		-50.73041	
44.24074	3336.074		-50.7358	
44.29485	3333.207		-50.74125	
44.34896	3330.337		-50.74622	
44.40306	3327.47		-50.75012	
44.45717	3324.609		-50.75238	
44.51128	3321.76		-50.75246	
44.56538	3318.931		-50.74987	
44.61949	3316.127		-50.74419	
44.6736	3313.352		-50.73507	
44.72771	3310.608		-50.7222	
44.78181	3307.892		-50.70536	
44.83592	3305.185		-50.68438	
44.89003	3302.456		-50.65918	
44.94414	3299.677		-50.62976	
44.99825	3296.827		-50.59615	
45.05235	3293.91		-50.55841	
45.10646	3290.947		-50.51667	
45.16057	3287.964		-50.47105	
45.21468	3284.982		-50.4217	
45.26878	3282.014		-50.36877	
45.32289	3279.066		-50.31238	
45.377	3276.151		-50.25262	
45.43111	3273.285		-50.18961	
45.48521	3270.48		-50.12347	
45.53932	3267.739		-50.05437	
45.59343	3265.058		-49.9825	
45.64754	3262.426		-49.90803	
45.70164	3259.823		-49.83115	
45.75575	3257.227		-49.75203	
45.80986	3254.633		-49.67083	
45.86397	3252.037		-49.58776	
45.91808	3249.441		-49.50307	
45.97218	3246.841		-49.41704	
46.02629	3244.234		-49.32999	
46.0804	3241.614		-49.24226	
46.13451	3238.978		-49.15419	
46.18861	3236.333		-49.06613	
46.24272	3233.692		-48.97843	
46.29683	3231.075		-48.89142	
46.35094	3228.496		-48.80544	
46.40504	3225.954		-48.72077	
46.45915	3223.443		-48.63771	
46.51326	3220.95		-48.55652	
46.56737	3218.461		-48.4774	
46.62148	3215.96		-48.40055	
46.67558	3213.439		-48.32613	
46.72969	3210.899		-48.25431	
46.7838	3208.349		-48.18527	
46.83791	3205.8		-48.11919	
46.89201	3203.255		-48.0563	
46.94612	3200.711		-47.9968	
47.00023	3198.156		-47.9409	
47.05434	3195.582		-47.8888	
47.10844	3192.986		-47.84067	
47.16255	3190.378		-47.79669	
47.21666	3187.77		-47.75701	
47.27077	3185.167		-47.72171	
47.32487	3182.572		-47.69082	
47.37898	3179.99		-47.66428	
47.43309	3177.426		-47.64191	
47.4872	3174.886		-47.62342	
47.54131	3172.374		-47.60843	
47.59541	3169.885		-47.59656	
47.64952	3167.41		-47.58736	
47.70363	3164.938		-47.58037	
47.75774	3162.455		-47.57512	
47.81184	3159.951		-47.57113	
47.86595	3157.423		-47.56792	
47.92006	3154.87		-47.56507	
47.97416	3152.297		-47.56221	
48.02827	3149.708		-47.55902	
48.08238	3147.108		-47.55527	
48.13649	3144.502		-47.55084	
48.19059	3141.889		-47.54562	
48.2447	3139.27		-47.53959	
48.29881	3136.649		-47.53271	
48.35292	3134.036		-47.52502	
48.40702	3131.435		-47.51654	
48.46113	3128.854		-47.50731	
48.51524	3126.297		-47.49731	
48.56935	3123.765		-47.48654	
48.62346	3121.247		-47.47498	
48.67756	3118.728		-47.4626	
48.73167	3116.19		-47.44947	
48.78578	3113.626		-47.43567	
48.83989	3111.034		-47.42135	
48.89399	3108.423		-47.40667	
48.9481	3105.799		-47.39182	
49.00221	3103.165		-47.37694	
49.05632	3100.52		-47.36223	
49.11042	3097.864		-47.34786	
49.16453	3095.201		-47.33397	
49.21864	3092.539		-47.32068	
49.27275	3089.881		-47.30804	
49.32685	3087.221		-47.296	
49.38096	3084.556		-47.28442	
49.43507	3081.888		-47.27305	
49.48918	3079.218		-47.2615	
49.54329	3076.552		-47.2493	
49.59739	3073.894		-47.23592	
49.6515	3071.251		-47.22079	
49.70561	3068.628		-47.2034	
49.75972	3066.033		-47.18321	
49.81382	3063.472		-47.1598	
49.86793	3060.948		-47.13276	
49.92204	3058.462		-47.1018	
49.97615	3056.016		-47.06674	
50.03025	3053.603		-47.02755	
50.08436	3051.217		-46.98431	
50.13847	3048.848		-46.93724	
50.19258	3046.484		-46.88657	
50.24669	3044.11		-46.83263	
50.30079	3041.722		-46.77573	
50.3549	3039.314		-46.71624	
50.40901	3036.885		-46.65454	
50.46312	3034.437		-46.59101	
50.51722	3031.974		-46.52605	
50.57133	3029.492		-46.46008	
50.62544	3026.985		-46.39353	
50.67955	3024.451		-46.32687	
50.73365	3021.901		-46.26058	
50.78776	3019.344		-46.19515	
50.84187	3016.795		-46.13106	
50.89598	3014.255		-46.06878	
50.95008	3011.719		-46.00873	
51.00419	3009.178		-45.95132	
51.0583	3006.623		-45.8969	
51.11241	3004.043		-45.84579	
51.16652	3001.437		-45.79824	
51.22062	2998.804		-45.75446	
51.27473	2996.146		-45.71455	
51.32884	2993.469		-45.67855	
51.38295	2990.786		-45.64639	
51.43705	2988.112		-45.61787	
51.49116	2985.466		-45.59268	
51.54527	2982.866		-45.57037	
51.59937	2980.322		-45.5504	
51.65348	2977.841		-45.5322	
51.70759	2975.422		-45.51517	
51.7617	2973.059		-45.49872	
51.8158	2970.735		-45.4823	
51.86991	2968.436		-45.46537	
51.92402	2966.153		-45.44747	
51.97813	2963.882		-45.42822	
52.03223	2961.622		-45.40731	
52.08634	2959.372		-45.38451	
52.14045	2957.129		-45.35967	
52.19456	2954.886		-45.33273	
52.24866	2952.632		-45.30368	
52.30277	2950.354		-45.27259	
52.35688	2948.048		-45.23963	
52.41099	2945.719		-45.20499	
52.4651	2943.382		-45.16895	
52.5192	2941.047		-45.13182	
52.57331	2938.712		-45.09396	
52.62742	2936.369		-45.05576	
52.68153	2934.009		-45.01757	
52.73563	2931.622		-44.97977	
52.78974	2929.206		-44.94277	
52.84385	2926.759		-44.907	
52.89796	2924.277		-44.87291	
52.95206	2921.756		-44.84096	
53.00617	2919.195		-44.8116	
53.06028	2916.6		-44.7852	
53.11439	2913.979		-44.7621	
53.1685	2911.338		-44.74252	
53.2226	2908.683		-44.72657	
53.27671	2906.019		-44.7143	
53.33082	2903.356		-44.70567	
53.38493	2900.705		-44.70053	
53.43903	2898.076		-44.69865	
53.49314	2895.483		-44.69967	
53.54725	2892.942		-44.70314	
53.60136	2890.458		-44.70853	
53.65546	2888.03		-44.7153	
53.70957	2885.655		-44.72282	
53.76368	2883.331		-44.7305	
53.81779	2881.047		-44.7377	
53.87189	2878.793		-44.74377	
53.926	2876.559		-44.74811	
53.98011	2874.336		-44.75011	
54.03422	2872.115		-44.74925	
54.08833	2869.883		-44.74501	
54.14243	2867.635		-44.737	
54.19654	2865.368		-44.72485	
54.25065	2863.073		-44.70832	
54.30476	2860.746		-44.68724	
54.35886	2858.385		-44.66154	
54.41297	2855.992		-44.63126	
54.46708	2853.571		-44.59648	
54.52119	2851.129		-44.55739	
54.57529	2848.67		-44.51418	
54.6294	2846.203		-44.46709	
54.68351	2843.729		-44.41637	
54.73762	2841.249		-44.36232	
54.79173	2838.769		-44.30531	
54.84583	2836.294		-44.24574	
54.89994	2833.826		-44.18406	
54.95404	2831.372		-44.12074	
55.00815	2828.931		-44.05627	
55.06226	2826.505		-43.99108	
55.11637	2824.089		-43.92555	
55.17048	2821.68		-43.86002	
55.22458	2819.269		-43.79479	
55.27869	2816.847		-43.73013	
55.3328	2814.404		-43.66628	
55.38691	2811.93		-43.60343	
55.44101	2809.424		-43.54166	
55.49512	2806.9		-43.48099	
55.54923	2804.378		-43.42136	
55.60334	2801.878		-43.36268	
55.65744	2799.417		-43.30482	
55.71155	2797.008		-43.24758	
55.76566	2794.648		-43.19076	
55.81977	2792.333		-43.13414	
55.87387	2790.052		-43.0775	
55.92798	2787.792		-43.02065	
55.98209	2785.546		-42.96339	
56.0362	2783.307		-42.90559	
56.09031	2781.061		-42.84711	
56.14441	2778.8		-42.78786	
56.19852	2776.512		-42.7278	
56.25263	2774.196		-42.66688	
56.30674	2771.857		-42.60511	
56.36084	2769.506		-42.54255	
56.41495	2767.157		-42.47931	
56.46906	2764.826		-42.41556	
56.52317	2762.529		-42.3515	
56.57727	2760.279		-42.28732	
56.63138	2758.083		-42.22324	
56.68549	2755.937		-42.15943	
56.7396	2753.83		-42.09602	
56.7937	2751.746		-42.03316	
56.84781	2749.666		-41.97096	
56.90192	2747.564		-41.90951	
56.95603	2745.417		-41.84888	
57.01014	2743.21		-41.78913	
57.06424	2740.942		-41.73029	
57.11835	2738.625		-41.67241	
57.17246	2736.286		-41.61551	
57.22657	2733.951		-41.55965	
57.28067	2731.642		-41.50491	
57.33478	2729.363		-41.45133	
57.38889	2727.113		-41.39899	
57.443	2724.889		-41.34796	
57.4971	2722.688		-41.29828	
57.55121	2720.508		-41.25	
57.60532	2718.345		-41.20316	
57.65943	2716.197		-41.15779	
57.71354	2714.058		-41.11389	
57.76764	2711.922		-41.07148	
57.82175	2709.777		-41.03056	
57.87586	2707.609		-40.99111	
57.92997	2705.416		-40.95311	
57.98407	2703.2		-40.91652	
58.03818	2700.97		-40.88133	
58.09229	2698.732		-40.84754	
58.1464	2696.487		-40.81519	
58.2005	2694.24		-40.78428	
58.25461	2691.992		-40.75485	
58.30872	2689.741		-40.72694	
58.36283	2687.483		-40.70057	
58.41693	2685.217		-40.67577	
58.47104	2682.945		-40.65252	
58.52515	2680.672		-40.63076	
58.57925	2678.402		-40.61036	
58.63336	2676.135		-40.59116	
58.68747	2673.873		-40.5729	
58.74158	2671.621		-40.55529	
58.79568	2669.389		-40.53794	
58.84979	2667.183		-40.52047	
58.9039	2664.997		-40.50244	
58.95801	2662.82		-40.48342	
59.01212	2660.639		-40.46298	
59.06622	2658.444		-40.44069	
59.12033	2656.234		-40.41618	
59.17444	2654.015		-40.3891	
59.22855	2651.798		-40.35916	
59.28265	2649.594		-40.32613	
59.33676	2647.407		-40.28985	
59.39087	2645.24		-40.25023	
59.44498	2643.094		-40.20727	
59.49908	2640.975		-40.16103	
59.55319	2638.882		-40.11165	
59.6073	2636.812		-40.05938	
59.66141	2634.759		-40.00454	
59.71552	2632.718		-39.94755	
59.76962	2630.681		-39.88884	
59.82373	2628.639		-39.82885	
59.87784	2626.584		-39.76795	
59.93195	2624.513		-39.7065	
59.98605	2622.426		-39.64484	
60.04016	2620.319		-39.58326	
60.09427	2618.188		-39.52208	
60.14838	2616.03		-39.46157	
60.20248	2613.845		-39.40199	
60.25659	2611.633		-39.3436	
60.3107	2609.394		-39.28661	
60.36481	2607.132		-39.23118	
60.41891	2604.855		-39.17741	
60.47302	2602.573		-39.12532	
60.52713	2600.294		-39.07487	
60.58124	2598.021		-39.02597	
60.63535	2595.756		-38.97842	
60.68945	2593.502		-38.93195	
60.74356	2591.261		-38.88621	
60.79767	2589.033		-38.84077	
60.85178	2586.82		-38.79518	
60.90588	2584.622		-38.74891	
60.95999	2582.449		-38.70141	
61.0141	2580.312		-38.65211	
61.06821	2578.216		-38.60046	
61.12231	2576.162		-38.54593	
61.17642	2574.146		-38.48801	
61.23053	2572.17		-38.42624	
61.28464	2570.231		-38.36019	
61.33875	2568.327		-38.28952	
61.39285	2566.448		-38.21394	
61.44696	2564.589		-38.13323	
61.50107	2562.744		-38.04724	
61.55518	2560.91		-37.95594	
61.60928	2559.082		-37.85941	
61.66339	2557.251		-37.75779	
61.7175	2555.407		-37.65134	
61.77161	2553.541		-37.5403	
61.82571	2551.64		-37.425	
61.87982	2549.695		-37.30572	
61.93393	2547.698		-37.18277	
61.98803	2545.645		-37.05648	
62.04214	2543.536		-36.92718	
62.09625	2541.378		-36.79518	
62.15036	2539.175		-36.66077	
62.20446	2536.937		-36.52419	
62.25857	2534.671		-36.38557	
62.31268	2532.388		-36.24501	
62.36679	2530.101		-36.10245	
62.42089	2527.829		-35.95774	
62.475	2525.586		-35.81063	
62.52911	2523.385		-35.66072	
62.58322	2521.232		-35.50747	
62.63733	2519.137		-35.35021	
62.69143	2517.107		-35.18818	
62.74554	2515.138		-35.02048	
62.79965	2513.216		-34.84611	
62.85376	2511.325		-34.66399	
62.90786	2509.452		-34.47299	
62.96197	2507.588		-34.2719	
63.01608	2505.73		-34.05953	
63.07019	2503.879		-33.83468	
63.12429	2502.042		-33.59617	
63.1784	2500.225		-33.34285	
63.23251	2498.437		-33.07362	
63.28662	2496.687		-32.78747	
63.34072	2494.982		-32.48347	
63.39483	2493.323		-32.16079	
63.44894	2491.704		-31.8187	
63.50305	2490.12		-31.45662	
63.55716	2488.558		-31.07408	
63.61126	2487		-30.67071	
63.66537	2485.422		-30.24629	
63.71948	2483.81		-29.80063	
63.77359	2482.156		-29.33366	
63.82769	2480.453		-28.84536	
63.8818	2478.697		-28.3358	
63.93591	2476.895		-27.8051	
63.99002	2475.06		-27.25344	
64.04412	2473.21		-26.68108	
64.09823	2471.365		-26.08817	
64.15234	2469.545		-25.47491	
64.20644	2467.771		-24.8414	
64.26055	2466.05		-24.18767	
64.31466	2464.387		-23.51363	
64.36877	2462.781		-22.81905	
64.42287	2461.224		-22.10354	
64.47698	2459.704		-21.36653	
64.53109	2458.21		-20.60722	
64.5852	2456.732		-19.82463	
64.63931	2455.269		-19.0176	
64.69341	2453.826		-18.18476	
64.74752	2452.412		-17.32461	
64.80163	2451.039		-16.4355	
64.85574	2449.724		-15.51567	
64.90984	2448.488		-14.5633	
64.96395	2447.351		-13.57649	
65.01806	2446.331		-12.55331	
65.07217	2445.438		-11.49181	
65.12627	2444.675		-10.39004	
65.18038	2444.032		-9.246149	
65.23449	2443.494		-8.058321	
65.2886	2443.041		-6.824849	
65.3427	2442.654		-5.544127	
65.39681	2442.315		-4.214659	
65.45092	2442.016		-2.835082	
65.50503	2441.761		-1.404174	
65.55914	2441.556		0.07915475	
65.61324	2441.404		1.61587	
65.66735	2441.306		3.206818	
65.72146	2441.268		4.852726	
65.77557	2441.295		6.554224	
65.82967	2441.392		8.311853	
65.88378	2441.562		10.12608	
65.93789	2441.808		11.99732	
65.992	2442.126		13.92595	
66.0461	2442.5		15.91236	
66.10021	2442.92		17.95696	
66.15432	2443.379		20.06026	
66.20843	2443.873		22.22283	
66.26254	2444.407		24.44539	
66.31664	2444.994		26.72874	
66.37075	2445.655		29.07382	
66.42486	2446.407		31.48172	
66.47897	2447.269		33.95367	
66.53307	2448.255		36.49108	
66.58718	2449.382		39.09547	
66.64129	2450.666		41.76853	
66.6954	2452.122		44.51203	
66.7495	2453.761		47.32788	
66.80361	2455.586		50.21806	
66.85772	2457.588		53.18465	
66.91183	2459.76		56.2298	
66.96593	2462.102		59.3557	
67.02004	2464.626		62.56458	
67.07415	2467.343		65.85869	
67.12826	2470.263		69.24023	
67.18237	2473.399		72.71133	
67.23647	2476.761		76.27397	
67.29058	2480.356		79.93005	
67.34469	2484.19		83.68127	
67.3988	2488.262		87.5292	
67.4529	2492.571		91.47517	
67.50701	2497.115		95.52037	
67.56112	2501.89		99.66574	
67.61523	2506.887		103.912	
67.66933	2512.094		108.2598	
67.72344	2517.493		112.7093	
67.77755	2523.066		117.2608	
67.83166	2528.804		121.9141	
67.88577	2534.704		126.6691	
67.93987	2540.778		131.5253	
67.99398	2547.041		136.4821	
68.04809	2553.514		141.539	
68.1022	2560.219		146.6951	
68.1563	2567.175		151.9498	
68.21041	2574.398		157.3021	
68.26452	2581.903		162.7513	
68.31863	2589.706		168.2965	
68.37273	2597.826		173.9368	
68.42684	2606.271		179.6713	
68.48095	2615.045		185.499	
68.53506	2624.147		191.4191	
68.58916	2633.579		197.4304	
68.64327	2643.347		203.5321	
68.69738	2653.47		209.7231	
68.75149	2663.967		216.0023	
68.8056	2674.855		222.3687	
68.8597	2686.145		228.8212	
68.91381	2697.846		235.3584	
68.96792	2709.969		241.9792	
69.02203	2722.522		248.6822	
69.07613	2735.518		255.4661	
69.13024	2748.958		262.3292	
69.18435	2762.842		269.2699	
69.23846	2777.162		276.2862	
69.29256	2791.913		283.3759	
69.34667	2807.08		290.5367	
69.40078	2822.652		297.7657	
69.45489	2838.621		305.0598	
69.509	2854.987		312.4151	
69.5631	2871.76		319.8277	
69.61721	2888.954		327.2927	
69.67132	2906.582		334.8047	
69.72543	2924.644		342.3577	
69.77953	2943.143		349.945	
69.83364	2962.082		357.5589	
69.88775	2981.46		365.1911	
69.94186	3001.275		372.8324	
69.99596	3021.528		380.4728	
70.05007	3042.223		388.1015	
70.10418	3063.369		395.7071	
70.15829	3084.974		403.2771	
70.21239	3107.038		410.7987	
70.2665	3129.565		418.2585	
70.32061	3152.556		425.642	
70.37472	3176.013		432.9346	
70.42883	3199.94		440.121	
70.48293	3224.343		447.1853	
70.53704	3249.231		454.1112	
70.59114	3274.607		460.8811	
70.64525	3300.486		467.48	
70.69936	3326.865		473.8898	
70.75346	3353.74		480.0932	
70.80757	3381.099		486.0731	
70.86168	3408.934		491.8123	
70.91579	3437.239		497.2941	
70.96989	3466.004		502.5021	
71.024	3495.224		507.4205	
71.07811	3524.898		512.034	
71.13222	3555.028		516.3284	
71.18633	3585.613		520.2899	
71.24043	3616.652		523.9062	
71.29454	3648.14		527.1655	
71.34865	3680.074		530.0576	
71.40276	3712.446		532.5729	
71.45686	3745.243		534.7034	
71.51097	3778.448		536.4423	
71.56508	3812.046		537.7838	
71.61919	3846.022		538.7232	
71.67329	3880.354		539.2574	
71.7274	3915.015		539.3842	
71.78151	3949.979		539.1024	
71.83562	3985.215		538.4124	
71.88972	4020.686		537.315	
71.94383	4056.346		535.8125	
71.99794	4092.144		533.908	
72.05205	4128.031		531.6057	
72.10616	4163.95		528.9105	
72.16026	4199.834		525.8282	
72.21437	4235.617		522.3657	
72.26848	4271.235		518.5302	
72.32259	4306.61		514.33	
72.37669	4341.657		509.7741	
72.4308	4376.279		504.872	
72.48491	4410.388		499.6335	
72.53902	4443.907		494.0693	
72.59312	4476.773		488.1904	
72.64723	4508.936		482.008	
72.70134	4540.355		475.534	
72.75545	4570.986		468.7805	
72.80956	4600.785		461.76	
72.86366	4629.703		454.4854	
72.91777	4657.688		446.9697	
72.97188	4684.684		439.2266	
73.02599	4710.634		431.2699	
73.08009	4735.503		423.1139	
73.1342	4759.272		414.7732	
73.18831	4781.933		406.2629	
73.24242	4803.495		397.5983	
73.29652	4823.98		388.7951	
73.35063	4843.431		379.8698	
73.40474	4861.903		370.8386	
73.45885	4879.46		361.7186	
73.51295	4896.169		352.527	
73.56706	4912.095		343.2813	
73.62117	4927.294		333.9991	
73.67528	4941.813		324.6985	
73.72939	4955.686		315.3974	
73.78349	4968.938		306.114	
73.8376	4981.583		296.8661	
73.89171	4993.627		287.6718	
73.94582	5005.072		278.5487	
73.99992	5015.93		269.514	
74.05403	5026.227		260.5844	
74.10814	5035.999		251.7763	
74.16225	5045.287		243.1049	
74.21635	5054.139		234.5851	
74.27046	5062.608		226.2305	
74.32457	5070.748		218.054	
74.37868	5078.605		210.0674	
74.43279	5086.216		202.2814	
74.48689	5093.611		194.7053	
74.541	5100.797		187.3474	
74.59511	5107.762		180.2147	
74.64922	5114.482		173.3129	
74.70332	5120.932		166.6461	
74.75743	5127.094		160.2175	
74.81154	5132.974		154.0287	
74.86565	5138.59		148.08	
74.91975	5143.971		142.3708	
74.97386	5149.141		136.899	
75.02797	5154.128		131.6616	
75.08208	5158.964		126.6543	
75.13618	5163.681		121.872	
75.19029	5168.308		117.3087	
75.2444	5172.864		112.9577	
75.29851	5177.354		108.8117	
75.35262	5181.77		104.8629	
75.40672	5186.101		101.1032	
75.46083	5190.327		97.52426	
75.51494	5194.429		94.11771	
75.56905	5198.393		90.87518	
75.62315	5202.201		87.78839	
75.67726	5205.851		84.84924	
75.73137	5209.36		82.04987	
75.78548	5212.75		79.38271	
75.83958	5216.044		76.84046	
75.89369	5219.255		74.41612	
75.9478	5222.39		72.10302	
76.00191	5225.458		69.89476	
76.05602	5228.476		67.7853	
76.11012	5231.459		65.76884	
76.16423	5234.42		63.83986	
76.21834	5237.356		61.9931	
76.27245	5240.267		60.22356	
76.32655	5243.137		58.52646	
76.38066	5245.949		56.89722	
76.43477	5248.691		55.33142	
76.48888	5251.366		53.82481	
76.54298	5253.987		52.37326	
76.59709	5256.578		50.97272	
76.6512	5259.144		49.61917	
76.70531	5261.687		48.30864	
76.75941	5264.205		47.0372	
76.81352	5266.704		45.80097	
76.86763	5269.187		44.59613	
76.92174	5271.644		43.41896	
76.97585	5274.06		42.26582	
77.02995	5276.416		41.13321	
77.08406	5278.691		40.01768	
77.13817	5280.862		38.91595	
77.19228	5282.906		37.82487	
77.24638	5284.802		36.7415	
77.30049	5286.54		35.66314	
77.3546	5288.118		34.58738	
77.40871	5289.553		33.5121	
77.46281	5290.873		32.43554	
77.51692	5292.113		31.3563	
77.57102	5293.294		30.27356	
77.62513	5294.427		29.18642	
77.67924	5295.522		28.09491	
77.73335	5296.594		26.9993	
77.78745	5297.661		25.90034	
77.84156	5298.742		24.79919	
77.89567	5299.851		23.69738	
77.94978	5300.993		22.59677	
78.00388	5302.162		21.49957	
78.05799	5303.345		20.40823	
78.1121	5304.53		19.3254	
78.16621	5305.715		18.25393	
78.22031	5306.905		17.19682	
78.27442	5308.117		16.15713	
78.32853	5309.363		15.13795	
78.38264	5310.657		14.1424	
78.43674	5311.987		13.17361	
78.49085	5313.336		12.23465	
78.54496	5314.692		11.32849	
78.59907	5316.033		10.45789	
78.65318	5317.32		9.625374	
78.70728	5318.515		8.833226	
78.76139	5319.589		8.083456	
78.8155	5320.516		7.377769	
78.86961	5321.272		6.717535	
78.92371	5321.829		6.103819	
78.97782	5322.169		5.537385	
79.03193	5322.297		5.018713	
79.08604	5322.228		4.548011	
79.14014	5321.976		4.125227	
79.19425	5321.551		3.750067	
79.24836	5320.962		3.422031	
79.30247	5320.212		3.140425	
79.35658	5319.307		2.904385	
79.41068	5318.255		2.712899	
79.46479	5317.08		2.564852	
79.5189	5315.814		2.459045	
79.57301	5314.49		2.39421	
79.62711	5313.126		2.369019	
79.68122	5311.741		2.382138	
79.73533	5310.338		2.432269	
79.78944	5308.927		2.518195	
79.84354	5307.519		2.638769	
79.89765	5306.144		2.79294	
79.95176	5304.824		2.979749	
80.00587	5303.585		3.19835	
80.05997	5302.442		3.447989	
80.11408	5301.412		3.728028	
80.16819	5300.502		4.037929	
80.2223	5299.729		4.377252	
80.27641	5299.097		4.745617	
80.33051	5298.625		5.142704	
80.38462	5298.312		5.568185	
80.43873	5298.15		6.021692	
80.49284	5298.135		6.50273	
80.54694	5298.272		7.010631	
80.60105	5298.553		7.54451	
80.65516	5298.965		8.103288	
80.70927	5299.499		8.68566	
80.76337	5300.149		9.290086	
80.81748	5300.908		9.914751	
80.87159	5301.773		10.5576	
80.9257	5302.75		11.2163	
80.9798	5303.848		11.88833	
81.03391	5305.068		12.57092	
81.08802	5306.411		13.26109	
81.14213	5307.868		13.95563	
81.19624	5309.431		14.65121	
81.25034	5311.09		15.34439	
81.30445	5312.829		16.03164	
81.35856	5314.622		16.7094	
81.41267	5316.438		17.37413	
81.46677	5318.259		18.02226	
81.52088	5320.078		18.65032	
81.57499	5321.896		19.25486	
81.6291	5323.717		19.83252	
81.6832	5325.542		20.38004	
81.73731	5327.374		20.89434	
81.79142	5329.221		21.37247	
81.84553	5331.093		21.81163	
81.89964	5333.002		22.20923	
81.95374	5334.94		22.56281	
82.00785	5336.896		22.87014	
82.06196	5338.851		23.12918	
82.11607	5340.778		23.33815	
82.17017	5342.645		23.49559	
82.22428	5344.427		23.60039	
82.27839	5346.115		23.65174	
82.3325	5347.717		23.64918	
82.3866	5349.235		23.59254	
82.44071	5350.683		23.48192	
82.49482	5352.08		23.31765	
82.54893	5353.454		23.10023	
82.60303	5354.82		22.83035	
82.65714	5356.197		22.5089	
82.71125	5357.599		22.1369	
82.76536	5359.035		21.71553	
82.81947	5360.496		21.24607	
82.87357	5361.971		20.72991	
82.92768	5363.439		20.16847	
82.98179	5364.874		19.56329	
83.0359	5366.236		18.91594	
83.09	5367.496		18.22802	
83.14411	5368.63		17.50114	
83.19822	5369.655		16.73697	
83.25233	5370.599		15.93718	
83.30643	5371.5		15.10345	
83.36054	5372.382		14.23747	
83.41465	5373.27		13.34094	
83.46876	5374.167		12.41556	
83.52287	5375.086		11.463	
83.57697	5376.03		10.48496	
83.63108	5376.995		9.483129	
83.68519	5377.952		8.459154	
83.7393	5378.873		7.414652	
83.7934	5379.719		6.351153	
83.84751	5380.477		5.270084	
83.90162	5381.128		4.172744	
83.95573	5381.67		3.06031	
84.00983	5382.094		1.933796	
84.06394	5382.413		0.7940525	
84.11805	5382.64		-0.3582307	
84.17216	5382.791		-1.522506	
84.22626	5382.867		-2.698359	
84.28037	5382.875		-3.885478	
84.33448	5382.813		-5.083657	
84.38859	5382.684		-6.292759	
84.4427	5382.48		-7.512731	
84.4968	5382.203		-8.743587	
84.5509	5381.838		-9.98518	
84.60501	5381.368		-11.23782	
84.65912	5380.766		-12.50121	
84.71323	5380.018		-13.77514	
84.76733	5379.117		-15.05935	
84.82144	5378.074		-16.35351	
84.87555	5376.91		-17.65727	
84.92966	5375.661		-18.97024	
84.98376	5374.355		-20.29202	
85.03787	5373.001		-21.62222	
85.09198	5371.583		-22.96048	
85.14609	5370.085		-24.30645	
85.2002	5368.507		-25.65978	
85.2543	5366.859		-27.02009	
85.30841	5365.141		-28.38697	
85.36252	5363.361		-29.75994	
85.41663	5361.522		-31.13841	
85.47073	5359.623		-32.52169	
85.52484	5357.667		-33.9089	
85.57895	5355.66		-35.299	
85.63306	5353.596		-36.69079	
85.68716	5351.471		-38.08292	
85.74127	5349.277		-39.47395	
85.79538	5347.015		-40.86234	
85.84949	5344.688		-42.24649	
85.90359	5342.308		-43.62476	
85.9577	5339.875		-44.99543	
86.01181	5337.39		-46.35675	
86.06592	5334.862		-47.707	
86.12003	5332.292		-49.04452	
86.17413	5329.682		-50.36771	
86.22824	5327.02		-51.67508	
86.28235	5324.296		-52.96524	
86.33646	5321.5		-54.23694	
86.39056	5318.62		-55.48907	
86.44467	5315.654		-56.72067	
86.49878	5312.604		-57.93084	
86.55289	5309.471		-59.11871	
86.60699	5306.26		-60.28345	
86.6611	5302.975		-61.4243	
86.71521	5299.613		-62.54052	
86.76932	5296.167		-63.63142	
86.82343	5292.628		-64.69639	
86.87753	5288.993		-65.73492	
86.93164	5285.27		-66.74661	
86.98575	5281.459		-67.73123	
87.03986	5277.553		-68.68869	
87.09396	5273.545		-69.61905	
87.14807	5269.455		-70.52248	
87.20218	5265.284		-71.39933	
87.25629	5261.031		-72.25005	
87.31039	5256.688		-73.07527	
87.3645	5252.255		-73.87568	
87.41861	5247.724		-74.65206	
87.47272	5243.102		-75.40524	
87.52682	5238.391		-76.13603	
87.58093	5233.6		-76.84524	
87.63504	5228.725		-77.53358	
87.68915	5223.78		-78.20173	
87.74326	5218.77		-78.85027	
87.79736	5213.719		-79.4797	
87.85147	5208.642		-80.09047	
87.90558	5203.561		-80.68291	
87.95969	5198.483		-81.25719	
88.01379	5193.426		-81.81344	
88.0679	5188.391		-82.35168	
88.12201	5183.383		-82.87193	
88.17612	5178.399		-83.37415	
88.23022	5173.443		-83.85835	
88.28433	5168.517		-84.3246	
88.33844	5163.624		-84.77299	
88.39255	5158.748		-85.2037	
88.44666	5153.889		-85.61694	
88.50076	5149.039		-86.01303	
88.55487	5144.204		-86.39234	
88.60898	5139.381		-86.75535	
88.66309	5134.577		-87.10258	
88.71719	5129.801		-87.43462	
88.7713	5125.073		-87.7521	
88.82541	5120.405		-88.0557	
88.87952	5115.812		-88.34619	
88.93362	5111.298		-88.62442	
88.98773	5106.849		-88.89128	
89.04184	5102.44		-89.14777	
89.09595	5098.056		-89.39493	
89.15005	5093.675		-89.63389	
89.20416	5089.28		-89.86586	
89.25827	5084.854		-90.09215	
89.31238	5080.394		-90.31409	
89.36649	5075.887		-90.53313	
89.42059	5071.326		-90.75072	
89.4747	5066.708		-90.96841	
89.52881	5062.04		-91.18774	
89.58292	5057.325		-91.41026	
89.63702	5052.571		-91.63748	
89.69113	5047.779		-91.87089	
89.74524	5042.945		-92.11188	
89.79935	5038.059		-92.36171	
89.85345	5033.113		-92.62148	
89.90756	5028.107		-92.89204	
89.96167	5023.041		-93.17403	
90.01578	5017.912		-93.46784	
90.06989	5012.729		-93.77358	
90.12399	5007.501		-94.09118	
90.1781	5002.236		-94.42035	
90.23221	4996.95		-94.76065	
90.28632	4991.665		-95.11148	
90.34042	4986.391		-95.47216	
90.39453	4981.133		-95.84192	
90.44864	4975.9		-96.21995	
90.50275	4970.705		-96.60536	
90.55685	4965.55		-96.99722	
90.61096	4960.428		-97.39453	
90.66507	4955.318		-97.79622	
90.71918	4950.191		-98.20116	
90.77328	4945.017		-98.60817	
90.82739	4939.771		-99.01606	
90.8815	4934.452		-99.42358	
90.93561	4929.062		-99.82944	
90.98972	4923.621		-100.2323	
91.04382	4918.14		-100.6309	
91.09793	4912.636		-101.0237	
91.15204	4907.117		-101.4097	
91.20615	4901.592		-101.7873	
91.26025	4896.067		-102.1554	
91.31436	4890.548		-102.5128	
91.36847	4885.022		-102.8585	
91.42258	4879.473		-103.1915	
91.47668	4873.878		-103.5111	
91.53078	4868.218		-103.8169	
91.58489	4862.465		-104.1085	
91.639	4856.614		-104.3857	
91.69311	4850.67		-104.6484	
91.74722	4844.653		-104.8966	
91.80132	4838.584		-105.1304	
91.85543	4832.506		-105.3498	
91.90954	4826.446		-105.5552	
91.96365	4820.43		-105.7468	
92.01775	4814.458		-105.9247	
92.07186	4808.531		-106.0892	
92.12597	4802.63		-106.2405	
92.18008	4796.748		-106.3788	
92.23418	4790.87		-106.5043	
92.28829	4784.987		-106.6171	
92.3424	4779.077		-106.7175	
92.39651	4773.13		-106.8054	
92.45061	4767.135		-106.76	
92.50472	4761.094		-106.7076	
92.55883	4755.02		-106.6511	
92.61294	4748.937		-106.5928	
92.66705	4742.858		-106.5341	
92.72115	4736.795		-106.4758	
92.77526	4730.751		-106.418	
92.82937	4724.736		-106.3605	
92.88348	4718.746		-106.3033	
92.93758	4712.777		-106.2459	
92.99169	4706.815		-106.1881	
93.0458	4700.857		-106.1297	
93.09991	4694.893		-106.0703	
93.15401	4688.923		-106.0098	
93.20812	4682.953		-105.9479	
93.26223	4676.992		-105.8845	
93.31634	4671.04		-105.8194	
93.37045	4665.108		-105.7525	
93.42455	4659.206		-105.6837	
93.47866	4653.362		-105.6129	
93.53277	4647.591		-105.5399	
93.58688	4641.914		-105.4648	
93.64098	4636.327		-105.3874	
93.69509	4630.809		-105.3078	
93.7492	4625.331		-105.226	
93.80331	4619.88		-105.1418	
93.85741	4614.439		-105.0553	
93.91152	4608.989		-104.9665	
93.96563	4603.5		-104.8754	
94.01974	4597.953		-104.782	
94.07384	4592.352		-104.6864	
94.12795	4586.679		-104.5885	
94.18206	4581.068		-104.4885	
94.23617	4575.521		-104.3863	
94.29028	4570.022		-104.2819	
94.34438	4564.558		-104.1755	
94.39849	4559.121		-104.067	
94.4526	4553.7		-103.9565	
94.50671	4548.289		-103.8441	
94.56081	4542.882		-103.7298	
94.61492	4537.473		-103.6137	
94.66903	4532.059		-103.4958	
94.72314	4526.637		-103.3762	
94.77724	4521.205		-103.2549	
94.83135	4515.759		-103.1321	
94.88546	4510.302		-103.0078	
94.93957	4504.836		-102.882	
94.99368	4499.365		-102.7549	
