T[Â°C]	330nm [counts / mm]	S.D.	First derivative	S.D. of first derivative
20.00113	3405.723		-49.2599	
20.05508	3403.045		-49.19763	
20.10903	3400.369		-49.13627	
20.16298	3397.698		-49.07587	
20.21693	3395.029		-49.01645	
20.27087	3392.363		-48.95806	
20.32482	3389.698		-48.90071	
20.37877	3387.034		-48.84444	
20.43272	3384.369		-48.78928	
20.48667	3381.702		-48.73524	
20.54062	3379.031		-48.68237	
20.59456	3376.356		-48.63066	
20.64851	3373.676		-48.58014	
20.70246	3370.991		-48.53083	
20.75641	3368.303		-48.48273	
20.81036	3365.613		-48.43585	
20.8643	3362.924		-48.3902	
20.91825	3360.241		-48.34576	
20.9722	3357.587		-48.30254	
21.02615	3354.931		-48.26053	
21.0801	3352.283		-48.2197	
21.13404	3349.642		-48.18003	
21.18799	3347.007		-48.14148	
21.24194	3344.379		-48.10404	
21.29589	3341.755		-48.06765	
21.34984	3339.134		-48.03228	
21.40379	3336.513		-47.99788	
21.45774	3333.903		-47.96437	
21.51168	3331.315		-47.93172	
21.56563	3328.764		-47.89986	
21.61958	3326.254		-47.86873	
21.67353	3323.781		-47.83824	
21.72748	3321.334		-47.80831	
21.78142	3318.903		-47.77886	
21.83537	3316.481		-47.74977	
21.88932	3314.066		-47.72095	
21.94327	3311.66		-47.69226	
21.99722	3309.266		-47.66356	
22.05116	3306.889		-47.63473	
22.10511	3304.529		-47.6056	
22.15906	3302.179		-47.57602	
22.21301	3299.835		-47.54587	
22.26696	3297.493		-47.51505	
22.32091	3295.146		-47.48359	
22.37486	3292.788		-47.45169	
22.4288	3290.412		-47.41986	
22.48275	3288.018		-47.38906	
22.5367	3285.609		-47.36076	
22.59065	3283.183		-47.33678	
22.6446	3280.744		-47.3485	
22.69854	3278.295		-47.36071	
22.75249	3275.838		-47.37323	
22.80644	3273.372		-47.38591	
22.86039	3270.894		-47.39864	
22.91434	3268.399		-47.41133	
22.96828	3265.883		-47.42392	
23.02223	3263.335		-47.43641	
23.07618	3260.751		-47.44879	
23.13013	3258.13		-47.46109	
23.18408	3255.478		-47.4733	
23.23803	3252.804		-47.48541	
23.29197	3250.114		-47.49733	
23.34592	3247.41		-47.50896	
23.39987	3244.699		-47.52012	
23.45382	3241.978		-47.53061	
23.50777	3239.246		-47.54018	
23.56171	3236.504		-47.54857	
23.61566	3233.753		-47.55553	
23.66961	3230.997		-47.56084	
23.72356	3228.24		-47.56428	
23.77751	3225.493		-47.5657	
23.83146	3222.762		-47.56499	
23.8854	3220.052		-47.56204	
23.93935	3217.368		-47.55684	
23.9933	3214.705		-47.54934	
24.04725	3212.054		-47.53958	
24.1012	3209.405		-47.52757	
24.15515	3206.751		-47.5133	
24.20909	3204.088		-47.49676	
24.26304	3201.42		-47.47788	
24.31699	3198.753		-47.45658	
24.37094	3196.097		-47.43276	
24.42489	3193.454		-47.40627	
24.47883	3190.824		-47.37698	
24.53278	3188.205		-47.34473	
24.58673	3185.597		-47.30935	
24.64068	3183		-47.27068	
24.69463	3180.414		-47.22857	
24.74858	3177.842		-47.18289	
24.80252	3175.292		-47.13359	
24.85647	3172.769		-47.08067	
24.91042	3170.274		-47.0242	
24.96437	3167.805		-46.96431	
25.01832	3165.356		-46.9012	
25.07226	3162.922		-46.83515	
25.12621	3160.499		-46.76652	
25.18016	3158.087		-46.69574	
25.23411	3155.684		-46.6233	
25.28806	3153.289		-46.54974	
25.342	3150.906		-46.4756	
25.39595	3148.536		-46.40141	
25.4499	3146.183		-46.32767	
25.50385	3143.851		-46.25479	
25.5578	3141.543		-46.18312	
25.61175	3139.244		-46.11295	
25.6657	3136.937		-46.04447	
25.71964	3134.605		-45.97783	
25.77359	3132.24		-45.91308	
25.82754	3129.835		-45.85025	
25.88149	3127.389		-45.78932	
25.93544	3124.903		-45.73026	
25.98938	3122.383		-45.67302	
26.04333	3119.842		-45.61758	
26.09728	3117.294		-45.56393	
26.15123	3114.745		-45.51207	
26.20518	3112.198		-45.46201	
26.25912	3109.655		-45.4138	
26.31307	3107.118		-45.36743	
26.36702	3104.589		-45.32292	
26.42097	3102.064		-45.28025	
26.47492	3099.538		-45.23938	
26.52887	3097.013		-45.20024	
26.58282	3094.495		-45.16272	
26.63676	3091.984		-45.12666	
26.69071	3089.479		-45.09184	
26.74466	3086.987		-45.05803	
26.79861	3084.52		-45.02497	
26.85256	3082.084		-44.99239	
26.9065	3079.684		-44.96004	
26.96045	3077.319		-44.92769	
27.0144	3074.981		-44.89511	
27.06835	3072.652		-44.86213	
27.1223	3070.318		-44.8286	
27.17624	3067.972		-44.79446	
27.23019	3065.617		-44.75972	
27.28414	3063.253		-44.72446	
27.33809	3060.875		-44.68882	
27.39204	3058.475		-44.65298	
27.44599	3056.049		-44.61713	
27.49993	3053.608		-44.58148	
27.55388	3051.155		-44.5462	
27.60783	3048.694		-44.51147	
27.66178	3046.234		-44.47744	
27.71573	3043.778		-44.44422	
27.76967	3041.327		-44.41188	
27.82362	3038.879		-44.38043	
27.87757	3036.431		-44.34986	
27.93152	3033.98		-44.32008	
27.98547	3031.523		-44.29098	
28.03942	3029.063		-44.26241	
28.09336	3026.613		-44.23421	
28.14731	3024.172		-44.20621	
28.20126	3021.745		-44.17827	
28.25521	3019.338		-44.15027	
28.30916	3016.959		-44.12217	
28.36311	3014.611		-44.09394	
28.41705	3012.296		-44.06561	
28.471	3010.011		-44.03727	
28.52495	3007.756		-44.00901	
28.5789	3005.525		-43.98096	
28.63285	3003.306		-43.95322	
28.68679	3001.087		-43.92592	
28.74074	2998.858		-43.89913	
28.79469	2996.613		-43.8729	
28.84864	2994.35		-43.84726	
28.90259	2992.081		-43.8222	
28.95654	2989.815		-43.7977	
29.01048	2987.556		-43.77366	
29.06443	2985.296		-43.75003	
29.11838	2983.031		-43.72673	
29.17233	2980.757		-43.70369	
29.22628	2978.465		-43.68089	
29.28023	2976.147		-43.65834	
29.33417	2973.795		-43.63609	
29.38812	2971.405		-43.61422	
29.44207	2968.972		-43.59282	
29.49602	2966.495		-43.57203	
29.54997	2963.976		-43.55196	
29.60391	2961.432		-43.53275	
29.65786	2958.88		-43.51455	
29.71181	2956.337		-43.4975	
29.76576	2953.814		-43.4817	
29.81971	2951.316		-43.46726	
29.87366	2948.847		-43.45418	
29.9276	2946.407		-43.44241	
29.98155	2943.997		-43.43186	
30.0355	2941.621		-43.42235	
30.08945	2939.28		-43.41366	
30.1434	2936.968		-43.4055	
30.19734	2934.681		-43.39753	
30.25129	2932.414		-43.38941	
30.30524	2930.161		-43.38075	
30.35919	2927.915		-43.3712	
30.41314	2925.67		-43.36042	
30.46708	2923.424		-43.34815	
30.52103	2921.173		-43.33418	
30.57498	2918.915		-43.31839	
30.62893	2916.648		-43.30075	
30.68288	2914.373		-43.28129	
30.73683	2912.086		-43.2601	
30.79078	2909.782		-43.23731	
30.84472	2907.464		-43.2131	
30.89867	2905.137		-43.18766	
30.95262	2902.798		-43.16118	
31.00657	2900.44		-43.13386	
31.06052	2898.056		-43.1059	
31.11446	2895.649		-43.07748	
31.16841	2893.227		-43.04881	
31.22236	2890.802		-43.02009	
31.27631	2888.384		-42.99152	
31.33026	2885.986		-42.96331	
31.3842	2883.62		-42.93565	
31.43815	2881.288		-42.90874	
31.4921	2878.987		-42.88277	
31.54605	2876.71		-42.85792	
31.6	2874.453		-42.83432	
31.65395	2872.207		-42.8121	
31.70789	2869.964		-42.79133	
31.76184	2867.718		-42.77207	
31.81579	2865.463		-42.7543	
31.86974	2863.196		-42.73798	
31.92369	2860.917		-42.72304	
31.97763	2858.624		-42.70937	
32.03158	2856.317		-42.6968	
32.08553	2853.99		-42.68513	
32.13948	2851.649		-42.67411	
32.19343	2849.3		-42.66346	
32.24738	2846.953		-42.65284	
32.30132	2844.619		-42.6419	
32.35527	2842.303		-42.63024	
32.40922	2840.008		-42.61745	
32.46317	2837.734		-42.60316	
32.51712	2835.478		-42.587	
32.57106	2833.232		-42.56864	
32.62502	2830.995		-42.54779	
32.67896	2828.76		-42.52425	
32.73291	2826.518		-42.49786	
32.78686	2824.266		-42.46862	
32.84081	2822		-42.43656	
32.89476	2819.726		-42.40185	
32.9487	2817.449		-42.36471	
33.00265	2815.179		-42.32545	
33.0566	2812.922		-42.28439	
33.11055	2810.682		-42.24188	
33.1645	2808.459		-42.19828	
33.21844	2806.243		-42.15393	
33.27239	2804.021		-42.10917	
33.32634	2801.779		-42.06434	
33.38029	2799.508		-42.01977	
33.43424	2797.206		-41.9758	
33.48819	2794.87		-41.93271	
33.54213	2792.508		-41.89075	
33.59608	2790.128		-41.85013	
33.65003	2787.735		-41.811	
33.70398	2785.331		-41.77348	
33.75793	2782.916		-41.73767	
33.81187	2780.492		-41.70364	
33.86582	2778.068		-41.67144	
33.91977	2775.656		-41.64115	
33.97372	2773.262		-41.6128	
34.02767	2770.894		-41.58643	
34.08162	2768.555		-41.56199	
34.13556	2766.25		-41.53945	
34.18951	2763.978		-41.5187	
34.24346	2761.738		-41.49959	
34.29741	2759.531		-41.48191	
34.35136	2757.358		-41.46544	
34.4053	2755.207		-41.44989	
34.45925	2753.066		-41.43499	
34.5132	2750.927		-41.42043	
34.56715	2748.787		-41.40588	
34.6211	2746.65		-41.39106	
34.67505	2744.519		-41.37568	
34.72899	2742.398		-41.35951	
34.78294	2740.29		-41.34239	
34.83689	2738.191		-41.32421	
34.89084	2736.102		-41.30492	
34.94479	2734.018		-41.28451	
34.99873	2731.933		-41.26305	
35.05268	2729.847		-41.24063	
35.10663	2727.759		-41.21737	
35.16058	2725.672		-41.19339	
35.21453	2723.587		-41.16883	
35.26847	2721.498		-41.14383	
35.32243	2719.391		-41.11852	
35.37637	2717.258		-41.09304	
35.43032	2715.092		-41.0675	
35.48427	2712.886		-41.04198	
35.53822	2710.639		-41.01657	
35.59217	2708.357		-40.99127	
35.64611	2706.05		-40.96613	
35.70006	2703.734		-40.94112	
35.75401	2701.425		-40.91626	
35.80796	2699.133		-40.89153	
35.86191	2696.861		-40.86692	
35.91586	2694.607		-40.8424	
35.9698	2692.36		-40.81793	
36.02375	2690.11		-40.79347	
36.0777	2687.85		-40.76896	
36.13165	2685.572		-40.74435	
36.1856	2683.276		-40.71954	
36.23954	2680.966		-40.69442	
36.29349	2678.65		-40.66886	
36.34744	2676.334		-40.64275	
36.40139	2674.019		-40.61594	
36.45534	2671.707		-40.5883	
36.50928	2669.407		-40.55967	
36.56323	2667.125		-40.52991	
36.61718	2664.866		-40.49889	
36.67113	2662.633		-40.46655	
36.72508	2660.428		-40.43283	
36.77903	2658.25		-40.39774	
36.83297	2656.099		-40.36129	
36.88692	2653.968		-40.32356	
36.94087	2651.851		-40.28463	
36.99482	2649.735		-40.24462	
37.04877	2647.605		-40.20369	
37.10271	2645.456		-40.16201	
37.15666	2643.284		-40.11981	
37.21061	2641.09		-40.0773	
37.26456	2638.877		-40.03474	
37.31851	2636.655		-39.99241	
37.37246	2634.432		-39.95061	
37.4264	2632.22		-39.90965	
37.48035	2630.021		-39.86986	
37.5343	2627.834		-39.83156	
37.58825	2625.657		-39.79506	
37.6422	2623.493		-39.76064	
37.69614	2621.346		-39.72857	
37.7501	2619.22		-39.69902	
37.80404	2617.121		-39.67214	
37.85799	2615.047		-39.64795	
37.91194	2612.994		-39.62643	
37.96589	2610.955		-39.60751	
38.01984	2608.922		-39.59105	
38.07378	2606.89		-39.57692	
38.12773	2604.855		-39.56495	
38.18168	2602.815		-39.55499	
38.23563	2600.774		-39.54687	
38.28958	2598.733		-39.54041	
38.34352	2596.697		-39.53546	
38.39747	2594.669		-39.53187	
38.45142	2592.655		-39.52948	
38.50537	2590.664		-39.52816	
38.55932	2588.693		-39.52775	
38.61327	2586.731		-39.52812	
38.66721	2584.768		-39.52913	
38.72116	2582.794		-39.53064	
38.77511	2580.801		-39.53247	
38.82906	2578.781		-39.53444	
38.88301	2576.728		-39.53632	
38.93695	2574.641		-39.53787	
38.9909	2572.523		-39.53883	
39.04485	2570.377		-39.53895	
39.0988	2568.212		-39.53794	
39.15275	2566.031		-39.53555	
39.2067	2563.834		-39.53151	
39.26064	2561.621		-39.52563	
39.31459	2559.396		-39.51772	
39.36854	2557.166		-39.50769	
39.42249	2554.931		-39.49546	
39.47644	2552.688		-39.481	
39.53038	2550.435		-39.46434	
39.58433	2548.177		-39.4455	
39.63828	2545.918		-39.42454	
39.69223	2543.661		-39.40151	
39.74618	2541.412		-39.37648	
39.80013	2539.171		-39.34948	
39.85407	2536.932		-39.32053	
39.90802	2534.691		-39.28963	
39.96197	2532.446		-39.25679	
40.01592	2530.201		-39.22202	
40.06987	2527.958		-39.18534	
40.12381	2525.721		-39.1468	
40.17776	2523.497		-39.10642	
40.23171	2521.288		-39.06427	
40.28566	2519.094		-39.02039	
40.33961	2516.911		-38.97485	
40.39355	2514.734		-38.92772	
40.44751	2512.57		-38.87908	
40.50145	2510.425		-38.82908	
40.5554	2508.296		-38.77783	
40.60935	2506.182		-38.72548	
40.6633	2504.08		-38.67219	
40.71725	2501.991		-38.61811	
40.77119	2499.915		-38.5634	
40.82514	2497.845		-38.50821	
40.87909	2495.775		-38.45269	
40.93304	2493.696		-38.39697	
40.98699	2491.602		-38.34118	
41.04094	2489.497		-38.28547	
41.09488	2487.393		-38.22993	
41.14883	2485.302		-38.17467	
41.20278	2483.234		-38.11981	
41.25673	2481.197		-38.06549	
41.31068	2479.204		-38.01187	
41.36462	2477.259		-37.95914	
41.41857	2475.358		-37.90749	
41.47252	2473.491		-37.85711	
41.52647	2471.646		-37.80819	
41.58042	2469.811		-37.76091	
41.63437	2467.981		-37.71547	
41.68831	2466.154		-37.67205	
41.74226	2464.323		-37.63079	
41.79621	2462.482		-37.59183	
41.85016	2460.625		-37.55531	
41.90411	2458.75		-37.52132	
41.95805	2456.859		-37.48996	
42.012	2454.948		-37.4613	
42.06595	2453.019		-37.4354	
42.1199	2451.073		-37.41233	
42.17385	2449.114		-37.39212	
42.22779	2447.146		-37.37475	
42.28174	2445.169		-37.36014	
42.33569	2443.187		-37.34816	
42.38964	2441.2		-37.33863	
42.44359	2439.206		-37.33131	
42.49754	2437.198		-37.32598	
42.55148	2435.166		-37.32235	
42.60543	2433.094		-37.32017	
42.65938	2430.976		-37.31914	
42.71333	2428.82		-37.31902	
42.76728	2426.644		-37.31957	
42.82122	2424.469		-37.3206	
42.87517	2422.308		-37.32191	
42.92912	2420.169		-37.32337	
42.98307	2418.055		-37.32483	
43.03702	2415.961		-37.32615	
43.09097	2413.885		-37.32722	
43.14491	2411.824		-37.32788	
43.19886	2409.778		-37.32803	
43.25281	2407.749		-37.3275	
43.30676	2405.735		-37.32614	
43.36071	2403.732		-37.32377	
43.41465	2401.74		-37.3202	
43.46861	2399.751		-37.31521	
43.52255	2397.757		-37.30862	
43.5765	2395.753		-37.30023	
43.63045	2393.74		-37.28991	
43.68439	2391.719		-37.27753	
43.73835	2389.688		-37.26307	
43.79229	2387.644		-37.24648	
43.84624	2385.585		-37.22783	
43.90019	2383.514		-37.20718	
43.95414	2381.434		-37.18466	
44.00809	2379.346		-37.16043	
44.06203	2377.259		-37.13467	
44.11598	2375.176		-37.10759	
44.16993	2373.098		-37.07941	
44.22388	2371.016		-37.05035	
44.27783	2368.929		-37.0206	
44.33178	2366.839		-36.99033	
44.38572	2364.754		-36.95972	
44.43967	2362.686		-36.92891	
44.49362	2360.646		-36.89808	
44.54757	2358.635		-36.86737	
44.60152	2356.65		-36.83693	
44.65546	2354.687		-36.80689	
44.70941	2352.742		-36.7774	
44.76336	2350.819		-36.74864	
44.81731	2348.915		-36.72078	
44.87126	2347.033		-36.69404	
44.92521	2345.176		-36.66864	
44.97915	2343.344		-36.6448	
45.0331	2341.535		-36.6227	
45.08705	2339.739		-36.60249	
45.141	2337.953		-36.58431	
45.19495	2336.17		-36.56824	
45.24889	2334.377		-36.55437	
45.30284	2332.556		-36.54269	
45.35679	2330.7		-36.53314	
45.41074	2328.804		-36.52562	
45.46469	2326.866		-36.51997	
45.51863	2324.893		-36.516	
45.57258	2322.891		-36.5135	
45.62653	2320.87		-36.51223	
45.68048	2318.839		-36.51199	
45.73443	2316.801		-36.51253	
45.78838	2314.763		-36.51365	
45.84232	2312.733		-36.51512	
45.89627	2310.716		-36.51676	
45.95022	2308.711		-36.51838	
46.00417	2306.715		-36.51981	
46.05812	2304.727		-36.5209	
46.11206	2302.75		-36.52151	
46.16602	2300.786		-36.52152	
46.21996	2298.829		-36.52079	
46.27391	2296.876		-36.51921	
46.32786	2294.925		-36.51665	
46.38181	2292.976		-36.51298	
46.43576	2291.028		-36.50809	
46.4897	2289.082		-36.50187	
46.54365	2287.138		-36.49422	
46.5976	2285.197		-36.48507	
46.65155	2283.267		-36.47433	
46.7055	2281.349		-36.46198	
46.75945	2279.441		-36.44798	
46.81339	2277.535		-36.4323	
46.86734	2275.622		-36.41501	
46.92129	2273.688		-36.39616	
46.97524	2271.72		-36.37585	
47.02919	2269.704		-36.35421	
47.08313	2267.632		-36.33138	
47.13708	2265.513		-36.30753	
47.19103	2263.36		-36.28284	
47.24498	2261.187		-36.25758	
47.29893	2259.003		-36.23199	
47.35287	2256.818		-36.20634	
47.40682	2254.637		-36.18091	
47.46077	2252.467		-36.15595	
47.51472	2250.316		-36.13172	
47.56867	2248.196		-36.10844	
47.62262	2246.119		-36.08632	
47.67656	2244.089		-36.06553	
47.73051	2242.104		-36.0462	
47.78446	2240.159		-36.0284	
47.83841	2238.254		-36.01215	
47.89236	2236.387		-35.99742	
47.9463	2234.549		-35.98415	
48.00025	2232.726		-35.97227	
48.0542	2230.902		-35.96169	
48.10815	2229.072		-35.9523	
48.1621	2227.235		-35.94398	
48.21605	2225.395		-35.93661	
48.26999	2223.559		-35.93007	
48.32394	2221.733		-35.92422	
48.37789	2219.924		-35.91893	
48.43184	2218.135		-35.91405	
48.48579	2216.363		-35.90942	
48.53973	2214.6		-35.90485	
48.59369	2212.831		-35.90014	
48.64763	2211.046		-35.8951	
48.70158	2209.239		-35.88953	
48.75553	2207.407		-35.88318	
48.80947	2205.548		-35.8758	
48.86343	2203.664		-35.86713	
48.91737	2201.764		-35.85694	
48.97132	2199.855		-35.84501	
49.02527	2197.944		-35.83117	
49.07922	2196.033		-35.81532	
49.13317	2194.124		-35.79739	
49.18711	2192.216		-35.77737	
49.24106	2190.308		-35.75533	
49.29501	2188.404		-35.73135	
49.34896	2186.513		-35.70556	
49.40291	2184.635		-35.6781	
49.45686	2182.764		-35.64914	
49.5108	2180.889		-35.61881	
49.56475	2179		-35.5873	
49.6187	2177.087		-35.55476	
49.67265	2175.141		-35.52136	
49.7266	2173.154		-35.48726	
49.78054	2171.125		-35.45255	
49.83449	2169.062		-35.41727	
49.88844	2166.977		-35.38146	
49.94239	2164.883		-35.3451	
49.99634	2162.79		-35.30816	
50.05029	2160.707		-35.2706	
50.10423	2158.632		-35.23238	
50.15818	2156.564		-35.19345	
50.21213	2154.501		-35.15376	
50.26608	2152.437		-35.11327	
50.32003	2150.367		-35.07193	
50.37397	2148.294		-35.02973	
50.42792	2146.223		-34.98663	
50.48187	2144.159		-34.94262	
50.53582	2142.104		-34.89765	
50.58977	2140.064		-34.85171	
50.64371	2138.046		-34.80476	
50.69766	2136.057		-34.75678	
50.75161	2134.097		-34.70776	
50.80556	2132.168		-34.65767	
50.85951	2130.271		-34.60648	
50.91346	2128.402		-34.55417	
50.9674	2126.561		-34.50071	
51.02135	2124.75		-34.44608	
51.0753	2122.975		-34.39025	
51.12925	2121.233		-34.3332	
51.1832	2119.516		-34.27494	
51.23714	2117.819		-34.21549	
51.2911	2116.138		-34.15494	
51.34504	2114.47		-34.0934	
51.39899	2112.807		-34.03104	
51.45294	2111.147		-33.96807	
51.50689	2109.489		-33.90477	
51.56084	2107.83		-33.84147	
51.61478	2106.165		-33.77855	
51.66873	2104.496		-33.71641	
51.72268	2102.827		-33.65548	
51.77663	2101.156		-33.59622	
51.83058	2099.477		-33.53906	
51.88453	2097.787		-33.48447	
51.93847	2096.085		-33.43287	
51.99242	2094.374		-33.38469	
52.04637	2092.654		-33.34028	
52.10032	2090.922		-33.30001	
52.15427	2089.177		-33.2642	
52.20821	2087.413		-33.23314	
52.26216	2085.629		-33.20708	
52.31611	2083.826		-33.18621	
52.37006	2082.009		-33.17069	
52.42401	2080.18		-33.16059	
52.47795	2078.343		-33.15594	
52.5319	2076.501		-33.15668	
52.58585	2074.661		-33.16272	
52.6398	2072.824		-33.17388	
52.69375	2070.989		-33.18998	
52.7477	2069.159		-33.21077	
52.80164	2067.336		-33.23599	
52.85559	2065.523		-33.26531	
52.90954	2063.717		-33.29834	
52.96349	2061.914		-33.33461	
53.01744	2060.115		-33.37358	
53.07138	2058.32		-33.41462	
53.12533	2056.524		-33.45705	
53.17928	2054.72		-33.50014	
53.23323	2052.913		-33.54314	
53.28718	2051.102		-33.5853	
53.34113	2049.288		-33.62593	
53.39507	2047.474		-33.66438	
53.44902	2045.665		-33.70007	
53.50297	2043.865		-33.73249	
53.55692	2042.073		-33.76121	
53.61087	2040.289		-33.78588	
53.66481	2038.516		-33.80621	
53.71877	2036.751		-33.82199	
53.77271	2034.99		-33.83303	
53.82666	2033.222		-33.83926	
53.88061	2031.439		-33.84063	
53.93456	2029.636		-33.83715	
53.98851	2027.812		-33.82891	
54.04245	2025.969		-33.81604	
54.0964	2024.107		-33.79868	
54.15035	2022.225		-33.77707	
54.2043	2020.326		-33.75146	
54.25825	2018.417		-33.72214	
54.31219	2016.506		-33.68942	
54.36614	2014.599		-33.65363	
54.42009	2012.699		-33.61508	
54.47404	2010.804		-33.57411	
54.52799	2008.914		-33.53106	
54.58194	2007.026		-33.48623	
54.63588	2005.135		-33.43993	
54.68983	2003.239		-33.39249	
54.74378	2001.327		-33.3442	
54.79773	1999.4		-33.29537	
54.85168	1997.457		-33.24629	
54.90562	1995.505		-33.19724	
54.95957	1993.55		-33.14845	
55.01352	1991.602		-33.10013	
55.06747	1989.669		-33.05246	
55.12142	1987.759		-33.0056	
55.17537	1985.878		-32.95966	
55.22931	1984.026		-32.91476	
55.28326	1982.2		-32.87101	
55.33721	1980.398		-32.82849	
55.39116	1978.621		-32.78732	
55.44511	1976.868		-32.74757	
55.49905	1975.141		-32.70928	
55.553	1973.439		-32.67248	
55.60695	1971.759		-32.63715	
55.6609	1970.098		-32.60323	
55.71485	1968.451		-32.5706	
55.7688	1966.821		-32.53912	
55.82274	1965.204		-32.5086	
55.87669	1963.595		-32.47882	
55.93064	1961.983		-32.44955	
55.98459	1960.365		-32.42057	
56.03854	1958.739		-32.39172	
56.09248	1957.107		-32.36281	
56.14643	1955.468		-32.33372	
56.20038	1953.825		-32.30437	
56.25433	1952.182		-32.27469	
56.30828	1950.546		-32.24467	
56.36222	1948.926		-32.21428	
56.41618	1947.325		-32.18354	
56.47012	1945.737		-32.1525	
56.52407	1944.154		-32.1212	
56.57802	1942.565		-32.08971	
56.63197	1940.966		-32.05807	
56.68592	1939.35		-32.02635	
56.73986	1937.706		-31.99464	
56.79381	1936.026		-31.96301	
56.84776	1934.307		-31.93156	
56.90171	1932.554		-31.9004	
56.95566	1930.775		-31.86965	
57.00961	1928.977		-31.83944	
57.06355	1927.171		-31.80993	
57.1175	1925.375		-31.78129	
57.17145	1923.6		-31.7537	
57.2254	1921.849		-31.72737	
57.27935	1920.117		-31.70253	
57.33329	1918.394		-31.67945	
57.38724	1916.671		-31.65839	
57.44119	1914.936		-31.63962	
57.49514	1913.18		-31.62333	
57.54909	1911.4		-31.60971	
57.60303	1909.591		-31.59885	
57.65698	1907.752		-31.59077	
57.71093	1905.887		-31.58541	
57.76488	1904.003		-31.58264	
57.81883	1902.102		-31.58221	
57.87278	1900.19		-31.58385	
57.92672	1898.27		-31.58724	
57.98067	1896.352		-31.59199	
58.03462	1894.445		-31.59769	
58.08857	1892.561		-31.60388	
58.14252	1890.707		-31.61007	
58.19646	1888.89		-31.61577	
58.25041	1887.113		-31.62047	
58.30436	1885.377		-31.62368	
58.35831	1883.682		-31.62494	
58.41226	1882.034		-31.62379	
58.46621	1880.428		-31.61987	
58.52015	1878.854		-31.61285	
58.5741	1877.302		-31.6025	
58.62805	1875.769		-31.58866	
58.682	1874.247		-31.57124	
58.73595	1872.729		-31.55023	
58.78989	1871.208		-31.52568	
58.84384	1869.685		-31.49771	
58.89779	1868.163		-31.46649	
58.95174	1866.643		-31.43221	
59.00569	1865.122		-31.39512	
59.05964	1863.602		-31.35549	
59.11358	1862.087		-31.31363	
59.16753	1860.575		-31.26987	
59.22148	1859.057		-31.22456	
59.27543	1857.529		-31.17809	
59.32938	1855.983		-31.13088	
59.38332	1854.41		-31.08338	
59.43727	1852.798		-31.03602	
59.49122	1851.137		-30.98925	
59.54517	1849.421		-30.94346	
59.59912	1847.648		-30.89901	
59.65306	1845.822		-30.85622	
59.70702	1843.955		-30.81534	
59.76096	1842.066		-30.77655	
59.81491	1840.167		-30.73995	
59.86886	1838.266		-30.70558	
59.92281	1836.371		-30.67339	
59.97676	1834.495		-30.64326	
60.0307	1832.647		-30.61501	
60.08465	1830.834		-30.58834	
60.1386	1829.055		-30.56292	
60.19255	1827.308		-30.53829	
60.2465	1825.585		-30.51397	
60.30045	1823.882		-30.4894	
60.35439	1822.197		-30.46398	
60.40834	1820.526		-30.43709	
60.46229	1818.868		-30.40811	
60.51624	1817.22		-30.37643	
60.57019	1815.587		-30.34153	
60.62413	1813.973		-30.30296	
60.67808	1812.381		-30.26036	
60.73203	1810.815		-30.21346	
60.78598	1809.271		-30.16206	
60.83993	1807.748		-30.10606	
60.89388	1806.242		-30.0454	
60.94782	1804.747		-29.9801	
61.00177	1803.254		-29.91021	
61.05572	1801.753		-29.83583	
61.10967	1800.238		-29.7571	
61.16362	1798.701		-29.67422	
61.21756	1797.138		-29.58741	
61.27151	1795.552		-29.49693	
61.32546	1793.945		-29.40308	
61.37941	1792.323		-29.30623	
61.43336	1790.69		-29.20678	
61.4873	1789.051		-29.10517	
61.54125	1787.407		-29.00183	
61.5952	1785.753		-28.89721	
61.64915	1784.087		-28.79176	
61.7031	1782.416		-28.6859	
61.75705	1780.745		-28.57998	
61.81099	1779.075		-28.47428	
61.86494	1777.403		-28.36904	
61.91889	1775.726		-28.26441	
61.97284	1774.048		-28.16045	
62.02679	1772.379		-28.05711	
62.08073	1770.731		-27.95427	
62.13469	1769.116		-27.85169	
62.18863	1767.544		-27.74909	
62.24258	1766.023		-27.64605	
62.29653	1764.561		-27.54211	
62.35048	1763.157		-27.43673	
62.40443	1761.804		-27.3293	
62.45837	1760.49		-27.2192	
62.51232	1759.198		-27.10576	
62.56627	1757.917		-26.98829	
62.62022	1756.629		-26.86614	
62.67417	1755.324		-26.73859	
62.72812	1753.995		-26.605	
62.78206	1752.635		-26.46468	
62.83601	1751.244		-26.317	
62.88996	1749.828		-26.16134	
62.94391	1748.392		-25.99708	
62.99786	1746.953		-25.8237	
63.0518	1745.524		-25.64065	
63.10575	1744.111		-25.4474	
63.1597	1742.713		-25.24348	
63.21365	1741.324		-25.02839	
63.2676	1739.938		-24.80168	
63.32154	1738.551		-24.5629	
63.37549	1737.163		-24.31161	
63.42944	1735.774		-24.04738	
63.48339	1734.386		-23.76982	
63.53734	1732.996		-23.47862	
63.59129	1731.604		-23.17343	
63.64523	1730.207		-22.85395	
63.69918	1728.81		-22.51993	
63.75313	1727.416		-22.17111	
63.80708	1726.035		-21.80734	
63.86103	1724.669		-21.4284	
63.91497	1723.323		-21.0341	
63.96892	1721.996		-20.62416	
64.02287	1720.683		-20.19828	
64.07682	1719.384		-19.75619	
64.13077	1718.097		-19.29743	
64.18472	1716.818		-18.82154	
64.23866	1715.548		-18.328	
64.29261	1714.287		-17.81626	
64.34656	1713.039		-17.28571	
64.40051	1711.806		-16.73564	
64.45446	1710.593		-16.16561	
64.50841	1709.401		-15.57487	
64.56236	1708.237		-14.96277	
64.6163	1707.107		-14.32864	
64.67025	1706.023		-13.67175	
64.7242	1704.989		-12.99137	
64.77814	1704.008		-12.28673	
64.83209	1703.078		-11.55704	
64.88604	1702.189		-10.8015	
64.93999	1701.338		-10.01912	
64.99394	1700.53		-9.209272	
65.04789	1699.771		-8.370906	
65.10184	1699.068		-7.50308	
65.15578	1698.428		-6.60481	
65.20973	1697.857		-5.675079	
65.26368	1697.36		-4.712847	
65.31763	1696.938		-3.717043	
65.37157	1696.588		-2.686575	
65.42552	1696.303		-1.620323	
65.47947	1696.076		-0.5171685	
65.53342	1695.902		0.6241631	
65.58737	1695.778		1.804442	
65.64132	1695.703		3.024903	
65.69527	1695.677		4.286583	
65.74921	1695.705		5.590469	
65.80316	1695.792		6.937492	
65.85711	1695.941		8.328544	
65.91106	1696.159		9.764482	
65.965	1696.449		11.24616	
66.01895	1696.814		12.77444	
66.07291	1697.254		14.3504	
66.12685	1697.767		15.97446	
66.1808	1698.351		17.64772	
66.23475	1698.998		19.37105	
66.2887	1699.701		21.14532	
66.34264	1700.457		22.97136	
66.39659	1701.264		24.85	
66.45054	1702.124		26.78206	
66.50449	1703.042		28.76835	
66.55843	1704.025		30.80962	
66.61239	1705.079		32.90693	
66.66634	1706.214		35.06038	
66.72028	1707.438		37.27098	
66.77423	1708.765		39.53937	
66.82818	1710.203		41.86619	
66.88213	1711.758		44.25207	
66.93607	1713.435		46.69762	
66.99002	1715.233		49.20347	
67.04397	1717.151		51.77026	
67.09792	1719.19		54.39867	
67.15187	1721.351		57.08973	
67.20582	1723.65		59.84335	
67.25977	1726.095		62.66056	
67.31371	1728.699		65.54205	
67.36766	1731.476		68.48846	
67.42161	1734.439		71.5005	
67.47556	1737.596		74.57878	
67.5295	1740.951		77.72395	
67.58345	1744.507		80.93658	
67.6374	1748.267		84.2172	
67.69135	1752.232		87.56676	
67.7453	1756.396		90.98469	
67.79925	1760.752		94.47178	
67.8532	1765.295		98.02827	
67.90714	1770.024		101.6543	
67.96109	1774.943		105.3499	
68.01504	1780.059		109.1151	
68.06898	1785.376		112.9496	
68.12293	1790.903		116.8533	
68.17688	1796.648		120.8257	
68.23083	1802.62		124.8669	
68.28478	1808.821		128.9753	
68.33873	1815.258		133.1506	
68.39268	1821.934		137.3921	
68.44662	1828.856		141.6989	
68.50057	1836.031		146.0702	
68.55452	1843.465		150.505	
68.60847	1851.163		155.0024	
68.66241	1859.125		159.5616	
68.71636	1867.352		164.1814	
68.77032	1875.845		168.8617	
68.82426	1884.599		173.6001	
68.87821	1893.609		178.396	
68.93216	1902.869		183.2484	
68.98611	1912.378		188.1558	
69.04005	1922.139		193.1167	
69.094	1932.155		198.1293	
69.14795	1942.438		203.192	
69.2019	1952.995		208.3024	
69.25584	1963.836		213.4583	
69.3098	1974.973		218.6577	
69.36375	1986.409		223.8962	
69.41769	1998.147		229.1714	
69.47164	2010.182		234.4798	
69.52559	2022.517		239.8174	
69.57954	2035.154		245.1799	
69.63348	2048.095		250.5629	
69.68743	2061.343		255.9611	
69.74138	2074.891		261.3689	
69.79533	2088.736		266.7802	
69.84928	2102.878		272.1892	
69.90323	2117.316		277.5872	
69.95718	2132.065		282.9673	
70.01112	2147.14		288.3213	
70.06507	2162.559		293.6402	
70.11902	2178.335		298.9149	
70.17297	2194.48		304.1353	
70.22691	2210.999		309.2913	
70.28086	2227.891		314.3719	
70.33481	2245.148		319.3661	
70.38876	2262.767		324.2631	
70.44271	2280.724		329.0498	
70.49666	2299.002		333.715	
70.55061	2317.591		338.2467	
70.60455	2336.486		342.6331	
70.6585	2355.685		346.8621	
70.71245	2375.189		350.922	
70.7664	2395.004		354.8013	
70.82034	2415.136		358.4886	
70.87429	2435.591		361.9733	
70.92825	2456.378		365.2452	
70.98219	2477.501		368.2934	
71.03614	2498.981		371.109	
71.09009	2520.831		373.6832	
71.14404	2543.063		376.0078	
71.19798	2565.675		378.0754	
71.25193	2588.664		379.8794	
71.30588	2612.023		381.4139	
71.35983	2635.731		382.6739	
71.41377	2659.761		383.655	
71.46773	2684.09		384.354	
71.52168	2708.684		384.7682	
71.57562	2733.513		384.8958	
71.62957	2758.546		384.7361	
71.68352	2783.759		384.2888	
71.73746	2809.129		383.5549	
71.79141	2834.633		382.5357	
71.84536	2860.246		381.2335	
71.89931	2885.927		379.6513	
71.95325	2911.634		377.7928	
72.00721	2937.33		375.6618	
72.06116	2962.972		373.2639	
72.1151	2988.512		370.6039	
72.16905	3013.889		367.6877	
72.223	3039.034		364.5215	
72.27695	3063.881		361.1116	
72.33089	3088.362		357.4653	
72.38484	3112.411		353.5897	
72.43879	3135.962		349.4924	
72.49274	3158.963		345.1813	
72.54669	3181.378		340.6638	
72.60064	3203.174		335.9496	
72.65459	3224.336		331.0466	
72.70853	3244.856		325.9637	
72.76248	3264.73		320.71	
72.81643	3283.964		315.2948	
72.87038	3302.56		309.7275	
72.92432	3320.517		304.0181	
72.97827	3337.828		298.1766	
73.03222	3354.481		292.2135	
73.08617	3370.461		286.1387	
73.14012	3385.747		279.9648	
73.19407	3400.326		273.7024	
73.24802	3414.202		267.3632	
73.30196	3427.38		260.9593	
73.35591	3439.879		254.5027	
73.40986	3451.725		248.0058	
73.46381	3462.957		241.4812	
73.51775	3473.615		234.9413	
73.5717	3483.743		228.3987	
73.62566	3493.387		221.8648	
73.6796	3502.589		215.3539	
73.73355	3511.389		208.8772	
73.7875	3519.827		202.447	
73.84145	3527.932		196.0751	
73.89539	3535.709		189.7731	
73.94934	3543.155		183.5525	
74.00329	3550.27		177.424	
74.05724	3557.064		171.398	
74.11118	3563.548		165.4844	
74.16514	3569.748		159.6915	
74.21909	3575.692		154.0294	
74.27303	3581.417		148.5047	
74.32698	3586.956		143.1243	
74.38093	3592.352		137.8939	
74.43488	3597.641		132.8185	
74.48882	3602.848		127.902	
74.54277	3607.984		123.1473	
74.59672	3613.046		118.5563	
74.65067	3618.014		114.1302	
74.70462	3622.859		109.8685	
74.75857	3627.555		105.7717	
74.81252	3632.082		101.8376	
74.86646	3636.426		98.06396	
74.92041	3640.578		94.44791	
74.97436	3644.536		90.98583	
75.02831	3648.316		87.67368	
75.08225	3651.938		84.50692	
75.1362	3655.421		81.48072	
75.19015	3658.781		78.58995	
75.2441	3662.024		75.8289	
75.29805	3665.16		73.19285	
75.352	3668.192		70.67578	
75.40594	3671.111		68.27203	
75.45989	3673.912		65.97594	
75.51384	3676.583		63.78188	
75.56779	3679.124		61.68433	
75.62173	3681.54		59.67792	
75.67568	3683.839		57.75744	
75.72963	3686.037		55.91791	
75.78358	3688.158		54.15433	
75.83753	3690.225		52.4627	
75.89148	3692.259		50.83855	
75.94543	3694.281		49.27791	
75.99937	3696.302		47.77713	
76.05332	3698.33		46.33281	
76.10727	3700.37		44.94187	
76.16122	3702.418		43.60148	
76.21516	3704.468		42.30909	
76.26911	3706.51		41.06234	
76.32307	3708.54		39.85892	
76.37701	3710.559		38.69717	
76.43096	3712.566		37.57505	
76.48491	3714.562		36.49081	
76.53886	3716.543		35.44273	
76.5928	3718.504		34.42911	
76.64675	3720.43		33.44831	
76.7007	3722.305		32.49874	
76.75465	3724.116		31.57887	
76.80859	3725.855		30.6872	
76.86255	3727.514		29.82219	
76.9165	3729.083		28.9827	
76.97044	3730.553		28.16731	
77.02439	3731.924		27.37481	
77.07834	3733.2		26.60412	
77.13229	3734.388		25.85428	
77.18623	3735.501		25.12446	
77.24018	3736.555		24.41393	
77.29413	3737.565		23.72204	
77.34808	3738.54		23.04824	
77.40203	3739.484		22.39197	
77.45598	3740.395		21.75306	
77.50993	3741.273		21.13114	
77.56387	3742.118		20.52598	
77.61782	3742.935		19.93747	
77.67177	3743.729		19.36554	
77.72572	3744.516		18.8102	
77.77966	3745.305		18.27151	
77.83361	3746.102		17.74953	
77.88756	3746.907		17.2443	
77.94151	3747.727		16.75571	
77.99546	3748.565		16.28382	
78.04941	3749.422		15.8284	
78.10336	3750.292		15.38922	
78.1573	3751.168		14.96597	
78.21125	3752.04		14.55834	
78.2652	3752.89		14.16596	
78.31915	3753.707		13.78842	
78.37309	3754.482		13.42528	
78.42704	3755.209		13.07603	
78.481	3755.881		12.7401	
78.53494	3756.495		12.41694	
78.58889	3757.053		12.10577	
78.64284	3757.563		11.80579	
78.69678	3758.03		11.51611	
78.75073	3758.459		11.23576	
78.80468	3758.853		10.96375	
78.85863	3759.209		10.69905	
78.91257	3759.516		10.4407	
78.96652	3759.768		10.18781	
79.02048	3759.958		9.939585	
79.07442	3760.081		9.695519	
79.12837	3760.132		9.455177	
79.18232	3760.127		9.21839	
79.23627	3760.089		8.985216	
79.29021	3760.053		8.755926	
79.34416	3760.052		8.530993	
79.39811	3760.114		8.311075	
79.45206	3760.257		8.096997	
79.506	3760.485		7.889706	
79.55996	3760.796		7.690204	
79.61391	3761.184		7.49966	
79.66785	3761.646		7.319231	
79.7218	3762.177		7.150148	
79.77575	3762.768		6.993668	
79.8297	3763.408		6.851026	
79.88364	3764.085		6.723408	
79.93759	3764.796		6.61188	
79.99154	3765.528		6.51738	
80.04549	3766.264		6.440676	
80.09943	3766.996		6.382355	
80.15339	3767.715		6.342786	
80.20734	3768.423		6.322161	
80.26128	3769.125		6.320446	
80.31523	3769.823		6.337441	
80.36918	3770.522		6.372772	
80.42313	3771.207		6.425891	
80.47707	3771.852		6.49602	
80.53102	3772.423		6.582162	
80.58497	3772.894		6.683071	
80.63892	3773.246		6.797263	
80.69287	3773.471		6.923019	
80.74682	3773.579		7.058367	
80.80077	3773.591		7.201175	
80.85471	3773.526		7.349153	
80.90866	3773.403		7.499913	
80.96261	3773.244		7.651048	
81.01656	3773.069		7.80015	
81.0705	3772.882		7.944871	
81.12445	3772.682		8.082957	
81.1784	3772.468		8.212328	
81.23235	3772.24		8.331123	
81.2863	3772		8.437685	
81.34025	3771.76		8.530673	
81.3942	3771.53		8.609034	
81.44814	3771.334		8.67203	
81.50209	3771.204		8.719232	
81.55604	3771.167		8.750505	
81.60999	3771.244		8.76602	
81.66393	3771.443		8.766216	
81.71788	3771.766		8.751754	
81.77184	3772.219		8.723474	
81.82578	3772.798		8.682365	
81.87973	3773.497		8.629536	
81.93368	3774.305		8.566162	
81.98763	3775.206		8.493496	
82.04157	3776.184		8.412806	
82.09552	3777.21		8.325353	
82.14947	3778.256		8.232328	
82.20341	3779.307		8.134824	
82.25736	3780.359		8.033796	
82.31132	3781.418		7.930054	
82.36526	3782.493		7.824255	
82.41921	3783.595		7.71682	
82.47316	3784.726		7.607944	
82.52711	3785.881		7.497628	
82.58105	3787.057		7.385635	
82.635	3788.244		7.271487	
82.68895	3789.427		7.154418	
82.7429	3790.584		7.033401	
82.79684	3791.695		6.907144	
82.8508	3792.74		6.77412	
82.90475	3793.712		6.632639	
82.95869	3794.616		6.480791	
83.01264	3795.447		6.316508	
83.06659	3796.196		6.137599	
83.12054	3796.853		5.941751	
83.17448	3797.412		5.726599	
83.22843	3797.864		5.489755	
83.28238	3798.209		5.22889	
83.33633	3798.45		4.941775	
83.39028	3798.587		4.626326	
83.44423	3798.629		4.280834	
83.49818	3798.588		3.903749	
83.55212	3798.477		3.49388	
83.60607	3798.291		3.050395	
83.66002	3798.025		2.572783	
83.71397	3797.684		2.060848	
83.76791	3797.28		1.514688	
83.82186	3796.821		0.9347017	
83.87581	3796.313		0.3215782	
83.92976	3795.764		-0.3238134	
83.98371	3795.188		-1.000082	
84.03766	3794.599		-1.705898	
84.09161	3794.009		-2.439639	
84.14555	3793.437		-3.199517	
84.1995	3792.909		-3.983593	
84.25345	3792.449		-4.789828	
84.3074	3792.077		-5.616111	
84.36134	3791.805		-6.460294	
84.41529	3791.636		-7.320193	
84.46925	3791.567		-8.193731	
84.52319	3791.59		-9.07841	
84.57714	3791.701		-9.97211	
84.63109	3791.893		-10.87262	
84.68504	3792.15		-11.77786	
84.73898	3792.439		-12.68589	
84.79293	3792.721		-13.59498	
84.84688	3792.968		-14.50351	
84.90083	3793.151		-15.41009	
84.95477	3793.243		-16.31349	
85.00873	3793.227		-17.21283	
85.06268	3793.097		-18.10705	
85.11662	3792.86		-18.99569	
85.17057	3792.516		-19.87842	
85.22452	3792.06		-20.75513	
85.27847	3791.477		-21.6259	
85.33241	3790.75		-22.49104	
85.38636	3789.868		-23.35099	
85.44031	3788.827		-24.2063	
85.49426	3787.625		-25.05759	
85.54821	3786.256		-25.90562	
85.60216	3784.719		-26.75075	
85.65611	3783.023		-27.59368	
85.71005	3781.182		-28.43494	
85.764	3779.215		-29.27502	
85.81795	3777.136		-30.1143	
85.87189	3774.967		-30.95306	
85.92584	3772.722		-31.79142	
85.97979	3770.415		-32.62942	
86.03374	3768.054		-33.46695	
86.08769	3765.651		-34.30392	
86.14164	3763.209		-35.13972	
86.19559	3760.731		-35.97396	
86.24953	3758.204		-36.80601	
86.30348	3755.628		-37.6351	
86.35743	3752.998		-38.46035	
86.41138	3750.32		-39.28078	
86.46532	3747.598		-40.09529	
86.51927	3744.838		-40.90268	
86.57322	3742.037		-41.70169	
86.62717	3739.197		-42.4911	
86.68112	3736.318		-43.2694	
86.73507	3733.412		-44.03543	
86.78902	3730.497		-44.788	
86.84296	3727.597		-45.52595	
86.89691	3724.722		-46.24818	
86.95086	3721.87		-46.95368	
87.00481	3719.037		-47.64151	
87.05875	3716.225		-48.31089	
87.1127	3713.442		-48.96113	
87.16666	3710.692		-49.5918	
87.2206	3707.966		-50.20237	
87.27455	3705.25		-50.79269	
87.3285	3702.534		-51.36272	
87.38245	3699.823		-51.9126	
87.43639	3697.121		-52.44261	
87.49034	3694.431		-52.95317	
87.54429	3691.755		-53.44484	
87.59824	3689.097		-53.91831	
87.65218	3686.462		-54.3744	
87.70614	3683.848		-54.81409	
87.76009	3681.247		-55.23832	
87.81403	3678.648		-55.64825	
87.86798	3676.032		-56.04508	
87.92193	3673.383		-56.43005	
87.97588	3670.692		-56.80441	
88.02982	3667.95		-57.16938	
88.08377	3665.147		-57.52617	
88.13772	3662.277		-57.87591	
88.19167	3659.332		-58.21968	
88.24562	3656.301		-58.55852	
88.29957	3653.174		-58.89322	
88.35352	3649.947		-59.22457	
88.40746	3646.631		-59.55323	
88.46141	3643.245		-59.87971	
88.51536	3639.815		-60.20442	
88.56931	3636.353		-60.52761	
88.62325	3632.87		-60.84946	
88.6772	3629.37		-61.16999	
88.73115	3625.863		-61.48911	
88.7851	3622.351		-61.80669	
88.83905	3618.832		-62.12239	
88.893	3615.291		-62.43595	
88.94695	3611.713		-62.74701	
89.00089	3608.081		-63.05512	
89.05484	3604.396		-63.35978	
89.10879	3600.672		-63.6604	
89.16273	3596.936		-63.95632	
89.21668	3593.198		-64.24686	
89.27063	3589.461		-64.5313	
89.32458	3585.723		-64.80895	
89.37853	3581.995		-65.07902	
89.43248	3578.273		-65.34082	
89.48643	3574.561		-65.59367	
89.54037	3570.855		-65.83688	
89.59432	3567.159		-66.06986	
89.64827	3563.469		-66.29208	
89.70222	3559.79		-66.50306	
89.75616	3556.116		-66.70245	
89.81011	3552.442		-66.89002	
89.86407	3548.752		-67.06574	
89.91801	3545.042		-67.22964	
89.97196	3541.31		-67.38203	
90.02591	3537.565		-67.52328	
90.07986	3533.818		-67.65403	
90.1338	3530.085		-67.77499	
90.18775	3526.376		-67.8871	
90.2417	3522.696		-67.99139	
90.29565	3519.035		-68.08898	
90.34959	3515.379		-68.18109	
90.40355	3511.713		-68.26895	
90.4575	3508.036		-68.35378	
90.51144	3504.341		-68.43684	
90.56539	3500.626		-68.51929	
90.61934	3496.888		-68.60229	
90.67329	3493.126		-68.68684	
90.72723	3489.341		-68.77386	
90.78118	3485.54		-68.86417	
90.83513	3481.729		-68.95849	
90.88908	3477.916		-69.05745	
90.94303	3474.112		-69.16161	
90.99698	3470.323		-69.27135	
91.05093	3466.553		-69.38699	
91.10487	3462.806		-69.5087	
91.15882	3459.085		-69.63652	
91.21277	3455.391		-69.77043	
91.26672	3451.723		-69.91034	
91.32066	3448.081		-70.05602	
91.37461	3444.453		-70.20715	
91.42856	3440.824		-70.36327	
91.48251	3437.189		-70.52387	
91.53646	3433.549		-70.68833	
91.59041	3429.91		-70.85606	
91.64436	3426.281		-71.02643	
91.6983	3422.67		-71.19878	
91.75225	3419.088		-71.37246	
91.8062	3415.536		-71.54679	
91.86015	3412.011		-71.72115	
91.91409	3408.497		-71.89497	
91.96804	3404.971		-72.06777	
92.022	3401.416		-72.23917	
92.07594	3397.82		-72.40877	
92.12989	3394.18		-72.57638	
92.18384	3390.497		-72.74186	
92.23779	3386.774		-72.90514	
92.29173	3383.001		-73.06625	
92.34568	3379.167		-73.22525	
92.39963	3375.257		-73.38223	
92.45358	3371.275		-73.52322	
92.50752	3367.226		-73.65411	
92.56148	3363.125		-73.77801	
92.61543	3358.977		-73.89774	
92.66937	3354.792		-74.0155	
92.72332	3350.575		-74.13272	
92.77727	3346.33		-74.25026	
92.83121	3342.054		-74.36863	
92.88516	3337.754		-74.48805	
92.93911	3333.424		-74.60862	
92.99306	3329.074		-74.73031	
93.047	3324.699		-74.85306	
93.10096	3320.303		-74.97677	
93.15491	3315.88		-75.10128	
93.20885	3311.437		-75.22648	
93.2628	3306.979		-75.35222	
93.31675	3302.528		-75.47836	
93.3707	3298.092		-75.60476	
93.42464	3293.68		-75.73127	
93.47859	3289.291		-75.85775	
93.53254	3284.937		-75.98405	
93.58649	3280.622		-76.11005	
93.64044	3276.345		-76.23564	
93.69439	3272.109		-76.36065	
93.74834	3267.909		-76.48497	
93.80228	3263.734		-76.60849	
93.85623	3259.588		-76.73109	
93.91018	3255.48		-76.85268	
93.96413	3251.421		-76.97314	
94.01807	3247.405		-77.0924	
94.07202	3243.467		-77.21037	
94.12597	3239.488		-77.32696	
94.17992	3235.471		-77.44213	
94.23387	3231.436		-77.55579	
94.28782	3227.389		-77.6679	
94.34177	3223.337		-77.77842	
94.39571	3219.283		-77.8873	
94.44966	3215.228		-77.99452	
94.50361	3211.171		-78.10005	
94.55756	3207.114		-78.20388	
94.6115	3203.057		-78.30599	
94.66545	3198.998		-78.40638	
94.71941	3194.939		-78.50506	
94.77335	3190.88		-78.60202	
94.8273	3186.822		-78.69728	
94.88125	3182.764		-78.79087	
94.9352	3178.702		-78.88282	
94.98914	3174.636		-78.97315	
