T[Â°C]	330nm [counts / mm]	S.D.	First derivative	S.D. of first derivative
20.00084	3329.14	14.10366	-48.63466	2.202442
20.05479	3326.496	14.33451	-48.55957	2.136109
20.10874	3323.852	14.56924	-48.48455	2.070397
20.16269	3321.209	14.80756	-48.4096	2.005332
20.21665	3318.568	15.04919	-48.33473	1.940931
20.2706	3315.929	15.2934	-48.25995	1.877217
20.32455	3313.292	15.53987	-48.18528	1.814212
20.3785	3310.657	15.78801	-48.11073	1.751934
20.43245	3308.026	16.03739	-48.03632	1.690407
20.4864	3305.397	16.28807	-47.96205	1.629654
20.54036	3302.772	16.5402	-47.88795	1.569693
20.59431	3300.149	16.79392	-47.81402	1.510546
20.64826	3297.529	17.04927	-47.74028	1.452238
20.70221	3294.91	17.30636	-47.66676	1.394786
20.75616	3292.291	17.56592	-47.59346	1.338212
20.81011	3289.671	17.82882	-47.52039	1.28254
20.86407	3287.048	18.09764	-47.44757	1.227784
20.91802	3284.417	18.37893	-47.37502	1.173971
20.97197	3281.778	18.68639	-47.30274	1.12112
21.02592	3279.218	18.92535	-47.23074	1.069253
21.07987	3276.662	19.11477	-47.15905	1.018389
21.13382	3274.11	19.24902	-47.08765	0.9685518
21.18777	3271.563	19.32729	-47.01655	0.9197687
21.24173	3269.02	19.35558	-46.94577	0.8720672
21.29568	3266.48	19.34458	-46.8753	0.8254766
21.34963	3263.945	19.30809	-46.80514	0.7800315
21.40358	3261.412	19.26567	-46.73528	0.735769
21.45753	3258.88	19.23124	-46.66573	0.6927238
21.51148	3256.352	19.20828	-46.59646	0.6509505
21.56544	3253.833	19.19312	-46.52748	0.6105024
21.61939	3251.33	19.18058	-46.45877	0.5714424
21.67334	3248.854	19.16212	-46.39031	0.5338571
21.72729	3246.404	19.12587	-46.32209	0.4978466
21.78124	3243.974	19.06236	-46.25409	0.4635416
21.8352	3241.549	18.96763	-46.18629	0.4311107
21.88915	3239.118	18.84224	-46.11867	0.4007733
21.9431	3236.675	18.69424	-46.05119	0.3728053
21.99705	3234.22	18.53625	-45.98382	0.34757
22.051	3231.755	18.3766	-45.91651	0.3255165
22.10495	3229.277	18.22199	-45.8492	0.3071824
22.15891	3226.787	18.07718	-45.78184	0.29318
22.21286	3224.287	17.94699	-45.71433	0.2841149
22.26681	3221.787	17.83466	-45.6466	0.2804714
22.32076	3219.296	17.73801	-45.57853	0.282458
22.37471	3216.827	17.64734	-45.51006	0.2898535
22.42866	3214.387	17.55472	-45.44111	0.3018863
22.48261	3211.976	17.451	-45.37169	0.3171738
22.53657	3209.59	17.32493	-45.30194	0.3337758
22.59052	3207.222	17.16641	-45.23217	0.3494836
22.64447	3204.86	16.97383	-45.18653	0.341016
22.69842	3202.494	16.75068	-45.14357	0.3314332
22.75237	3200.117	16.50488	-45.10336	0.3206922
22.80632	3197.729	16.25064	-45.06596	0.3087668
22.86028	3195.334	16.00754	-45.0314	0.2956457
22.91423	3192.935	15.79341	-44.99971	0.2813647
22.96818	3190.531	15.61827	-44.97091	0.2659903
23.02213	3188.123	15.48626	-44.94496	0.2496652
23.07608	3185.712	15.39812	-44.92182	0.2325885
23.13003	3183.304	15.35417	-44.90142	0.2150487
23.18399	3180.899	15.35419	-44.88365	0.1974148
23.23794	3178.501	15.39393	-44.86837	0.1801635
23.29189	3176.115	15.46562	-44.85542	0.1638855
23.34584	3173.744	15.56261	-44.84464	0.1492953
23.39979	3171.387	15.67676	-44.83586	0.1372
23.45374	3169.041	15.80123	-44.82887	0.1283786
23.5077	3166.698	15.93232	-44.82346	0.1233759
23.56165	3164.35	16.0697	-44.81942	0.122268
23.6156	3161.998	16.21565	-44.81652	0.1245823
23.66955	3159.644	16.37458	-44.81454	0.1294375
23.7235	3157.291	16.55072	-44.81325	0.1358427
23.77745	3154.94	16.74406	-44.81246	0.1429062
23.83141	3152.585	16.94699	-44.81197	0.1499419
23.88536	3150.224	17.14907	-44.81161	0.1564823
23.93931	3147.854	17.34245	-44.8112	0.1622677
23.99326	3145.474	17.52178	-44.81062	0.1672152
24.04721	3143.082	17.68743	-44.80973	0.1713984
24.10116	3140.679	17.84237	-44.80844	0.1750268
24.15512	3138.263	17.98775	-44.80667	0.1784414
24.20907	3135.837	18.12021	-44.80433	0.1820667
24.26302	3133.401	18.2313	-44.8013	0.1863994
24.31697	3130.955	18.31468	-44.79745	0.1919479
24.37092	3128.5	18.36875	-44.79266	0.199174
24.42487	3126.04	18.3991	-44.78679	0.208453
24.47882	3123.576	18.4146	-44.77974	0.2200264
24.53278	3121.109	18.422	-44.7714	0.23399
24.58673	3118.635	18.42512	-44.76169	0.2502657
24.64068	3116.15	18.42624	-44.75053	0.2686208
24.69463	3113.656	18.42736	-44.73782	0.2886975
24.74858	3111.16	18.43175	-44.72349	0.3100516
24.80253	3108.668	18.44425	-44.70747	0.3321728
24.85649	3106.182	18.46998	-44.68972	0.3545384
24.91044	3103.702	18.5089	-44.6702	0.3766336
24.96439	3101.227	18.55635	-44.64887	0.3979775
25.01834	3098.751	18.60777	-44.62575	0.4181458
25.07229	3096.275	18.65829	-44.60085	0.4367827
25.12625	3093.798	18.70277	-44.5742	0.4536064
25.1802	3091.324	18.73413	-44.54589	0.468422
25.23415	3088.858	18.74553	-44.51601	0.4811153
25.2881	3086.403	18.7314	-44.4847	0.4916549
25.34205	3083.961	18.68875	-44.45206	0.5000912
25.396	3081.531	18.6185	-44.41825	0.5065629
25.44995	3079.112	18.52486	-44.3834	0.5112919
25.50391	3076.701	18.41031	-44.34763	0.514541
25.55786	3074.291	18.27342	-44.31104	0.5166359
25.61181	3071.882	18.11238	-44.27374	0.5179124
25.66576	3069.474	17.92842	-44.23584	0.5186838
25.71971	3067.073	17.72458	-44.19744	0.5192357
25.77366	3064.678	17.50466	-44.15863	0.5197679
25.82762	3062.285	17.2745	-44.11951	0.5203912
25.88157	3059.89	17.03995	-44.08018	0.5211285
25.93552	3057.488	16.80323	-44.04074	0.5219132
25.98947	3055.076	16.56265	-44.00128	0.5226187
26.04342	3052.659	16.31517	-43.96188	0.5230646
26.09737	3050.243	16.06078	-43.92264	0.5230472
26.15133	3047.834	15.8006	-43.88363	0.5223624
26.20528	3045.44	15.5379	-43.84495	0.5208365
26.25923	3043.062	15.28085	-43.80666	0.5183216
26.31318	3040.699	15.04138	-43.76878	0.5147282
26.36713	3038.355	14.83049	-43.73133	0.5100118
26.42108	3036.032	14.65558	-43.69431	0.5041816
26.47503	3033.733	14.51941	-43.65773	0.4972962
26.52899	3031.456	14.4214	-43.62159	0.4894371
26.58294	3029.196	14.35802	-43.5859	0.4806736
26.63689	3026.949	14.32547	-43.55063	0.4710509
26.69084	3024.71	14.32125	-43.51581	0.4605814
26.74479	3022.47	14.34591	-43.48144	0.449228
26.79875	3020.228	14.40153	-43.44754	0.4369177
26.8527	3017.982	14.48592	-43.41414	0.4235639
26.90665	3015.738	14.59452	-43.38126	0.4090692
26.9606	3013.497	14.7247	-43.34893	0.3933532
27.01455	3011.256	14.87491	-43.31716	0.3763606
27.0685	3009.011	15.04567	-43.286	0.358084
27.12246	3006.758	15.2403	-43.25546	0.338574
27.17641	3004.497	15.45992	-43.22562	0.3179549
27.23036	3002.229	15.70233	-43.19657	0.2964408
27.28431	2999.955	15.95948	-43.16838	0.2743571
27.33826	2997.676	16.22094	-43.14117	0.2521651
27.39221	2995.391	16.47914	-43.11504	0.2305146
27.44617	2993.1	16.72696	-43.09008	0.2102896
27.50012	2990.801	16.95744	-43.06639	0.1926313
27.55407	2988.487	17.16972	-43.04404	0.1789164
27.60802	2986.154	17.36575	-43.02311	0.1705461
27.66197	2983.801	17.54618	-43.00366	0.1685731
27.71592	2981.429	17.70865	-42.98577	0.1732422
27.76987	2979.043	17.85071	-42.96949	0.1839201
27.82383	2976.65	17.97236	-42.95486	0.1994322
27.87778	2974.254	18.07602	-42.94185	0.2184983
27.93173	2971.86	18.1624	-42.93045	0.2400519
27.98568	2969.471	18.23001	-42.92059	0.2633144
28.03963	2967.087	18.27742	-42.91216	0.2877562
28.09358	2964.706	18.30177	-42.90506	0.3130425
28.14754	2962.33	18.30003	-42.89915	0.3389518
28.20149	2959.957	18.27301	-42.89431	0.3653488
28.25544	2957.587	18.22504	-42.8904	0.392123
28.30939	2955.22	18.16413	-42.88725	0.4191714
28.36334	2952.856	18.098	-42.88469	0.446355
28.41729	2950.496	18.032	-42.88254	0.4734957
28.47125	2948.139	17.96633	-42.88065	0.5003667
28.5252	2945.783	17.89499	-42.87885	0.5266951
28.57915	2943.432	17.81385	-42.877	0.5521843
28.6331	2941.09	17.72442	-42.87496	0.5765524
28.68705	2938.76	17.62996	-42.87262	0.5995265
28.741	2936.442	17.53257	-42.86989	0.6208687
28.79496	2934.137	17.4331	-42.86668	0.6403739
28.84891	2931.846	17.33026	-42.86291	0.657865
28.90286	2929.571	17.22555	-42.85845	0.6732057
28.95681	2927.311	17.11944	-42.85321	0.6862939
29.01076	2925.056	17.01033	-42.84703	0.6970611
29.06471	2922.803	16.89538	-42.83982	0.705467
29.11867	2920.548	16.77367	-42.83144	0.7114872
29.17262	2918.287	16.6439	-42.82181	0.7151257
29.22657	2916.017	16.5069	-42.81086	0.7163894
29.28052	2913.735	16.36507	-42.79853	0.7153112
29.33447	2911.44	16.22499	-42.78479	0.7119259
29.38842	2909.134	16.094	-42.76963	0.7062611
29.44238	2906.824	15.97397	-42.75304	0.6983398
29.49633	2904.522	15.86596	-42.73506	0.6881905
29.55028	2902.235	15.77295	-42.71569	0.6758397
29.60423	2899.964	15.69686	-42.69502	0.6613271
29.65818	2897.704	15.63654	-42.67311	0.6447133
29.71213	2895.45	15.58761	-42.6501	0.6260705
29.76608	2893.193	15.54443	-42.62611	0.6055081
29.82004	2890.927	15.5054	-42.60124	0.5831844
29.87399	2888.648	15.47278	-42.5756	0.5593426
29.92794	2886.351	15.45074	-42.54926	0.5343298
29.98189	2884.035	15.44318	-42.52224	0.5085899
30.03584	2881.7	15.45021	-42.49458	0.4826981
30.0898	2879.352	15.4657	-42.46627	0.4573579
30.14375	2876.995	15.48204	-42.43731	0.4334373
30.1977	2874.635	15.49515	-42.40767	0.4119226
30.25165	2872.276	15.50819	-42.37733	0.3938937
30.3056	2869.928	15.53187	-42.34625	0.3804165
30.35955	2867.596	15.57987	-42.3144	0.3723758
30.41351	2865.289	15.66506	-42.28176	0.3703111
30.46746	2863.014	15.79238	-42.24833	0.3742775
30.52141	2860.767	15.95902	-42.21414	0.3838476
30.57536	2858.542	16.15683	-42.1792	0.3982166
30.62931	2856.332	16.3714	-42.14357	0.4163961
30.68326	2854.125	16.5835	-42.10729	0.4373998
30.73722	2851.908	16.77828	-42.07045	0.4603314
30.79117	2849.674	16.94754	-42.03315	0.4844694
30.84512	2847.418	17.08717	-41.99546	0.5092548
30.89907	2845.139	17.20005	-41.95747	0.5342773
30.95302	2842.832	17.29188	-41.91928	0.5592086
31.00697	2840.497	17.36847	-41.88096	0.5837661
31.06092	2838.141	17.43582	-41.84257	0.6076992
31.11488	2835.777	17.49805	-41.80418	0.6307817
31.16883	2833.418	17.55745	-41.76583	0.6528102
31.22278	2831.074	17.61277	-41.7276	0.6736066
31.27673	2828.748	17.65764	-41.68954	0.693003
31.33068	2826.436	17.68721	-41.65168	0.7108418
31.38463	2824.137	17.69631	-41.61407	0.7269719
31.43859	2821.853	17.67865	-41.57674	0.7412524
31.49254	2819.584	17.63117	-41.53974	0.7535732
31.54649	2817.331	17.55301	-41.50309	0.7638488
31.60044	2815.087	17.44476	-41.46685	0.7720231
31.65439	2812.849	17.30965	-41.4311	0.7780846
31.70834	2810.609	17.14829	-41.39593	0.7820598
31.7623	2808.365	16.95873	-41.36141	0.7840081
31.81625	2806.119	16.74039	-41.32765	0.7840215
31.8702	2803.873	16.49852	-41.29475	0.7822225
31.92415	2801.631	16.24356	-41.26282	0.7787459
31.9781	2799.401	15.98989	-41.23195	0.7737204
32.03205	2797.19	15.75065	-41.20224	0.7672607
32.08601	2795.002	15.53141	-41.17374	0.7594725
32.13996	2792.841	15.33132	-41.14649	0.7504319
32.19391	2790.706	15.14674	-41.12047	0.740199
32.24786	2788.59	14.9724	-41.09565	0.7287747
32.30181	2786.489	14.80364	-41.07194	0.7161218
32.35576	2784.393	14.63654	-41.04926	0.7021658
32.40971	2782.294	14.46976	-41.02749	0.6867884
32.46367	2780.19	14.30979	-41.00653	0.6698424
32.51762	2778.079	14.16706	-40.98626	0.6511512
32.57157	2775.958	14.05359	-40.96657	0.6305398
32.62552	2773.823	13.97538	-40.94734	0.6078606
32.67947	2771.672	13.93297	-40.92845	0.5830242
32.73343	2769.505	13.92386	-40.90982	0.5560245
32.78738	2767.325	13.94071	-40.89137	0.5269547
32.84133	2765.137	13.97447	-40.87304	0.4960328
32.89528	2762.945	14.01979	-40.8548	0.4636286
32.94923	2760.747	14.07433	-40.83665	0.43028
33.00319	2758.544	14.13863	-40.81859	0.396724
33.05714	2756.336	14.21234	-40.8006	0.3639344
33.11109	2754.13	14.29541	-40.78267	0.3331805
33.16504	2751.928	14.38498	-40.76477	0.3060587
33.21899	2749.735	14.4713	-40.74685	0.2844391
33.27294	2747.544	14.54646	-40.7289	0.2701925
33.32689	2745.349	14.60919	-40.71087	0.2646867
33.38084	2743.149	14.66073	-40.69274	0.2682304
33.4348	2740.942	14.70111	-40.67448	0.2798946
33.48875	2738.73	14.73462	-40.65601	0.2979153
33.5427	2736.52	14.77253	-40.63729	0.3202791
33.59665	2734.316	14.82928	-40.61827	0.3451593
33.6506	2732.12	14.9149	-40.59896	0.371074
33.70456	2729.935	15.02968	-40.57935	0.3968856
33.75851	2727.757	15.16514	-40.55944	0.4217506
33.81246	2725.577	15.31079	-40.53925	0.4450125
33.86641	2723.385	15.45583	-40.51885	0.4661464
33.92036	2721.179	15.59102	-40.49831	0.484715
33.97431	2718.959	15.71068	-40.47775	0.5003514
34.02826	2716.729	15.81269	-40.45728	0.5127296
34.08222	2714.491	15.8997	-40.43705	0.5215813
34.13617	2712.244	15.97671	-40.41716	0.5266944
34.19012	2709.982	16.05142	-40.39771	0.5279316
34.24407	2707.708	16.13177	-40.37878	0.525234
34.29802	2705.426	16.22397	-40.36044	0.5186257
34.35197	2703.143	16.32757	-40.34271	0.5082292
34.40593	2700.86	16.4399	-40.3256	0.494282
34.45988	2698.583	16.55716	-40.30907	0.4771795
34.51383	2696.317	16.6742	-40.29306	0.457516
34.56778	2694.065	16.78609	-40.2775	0.4361056
34.62173	2691.829	16.8914	-40.26225	0.4140233
34.67569	2689.608	16.99048	-40.2472	0.3926054
34.72964	2687.401	17.08462	-40.2322	0.3734277
34.78359	2685.206	17.17201	-40.21709	0.3582025
34.83754	2683.026	17.24837	-40.20173	0.3485563
34.89149	2680.859	17.30784	-40.18596	0.3457057
34.94544	2678.706	17.34282	-40.16964	0.350158
34.99939	2676.56	17.35091	-40.15265	0.3615979
35.05334	2674.416	17.33535	-40.13489	0.3790371
35.1073	2672.274	17.30126	-40.11625	0.4011137
35.16125	2670.139	17.25379	-40.09666	0.4264008
35.2152	2668.015	17.19858	-40.07603	0.453615
35.26915	2665.907	17.14076	-40.05434	0.4817059
35.3231	2663.819	17.08452	-40.03156	0.5098913
35.37706	2661.751	17.02637	-40.00766	0.5376016
35.43101	2659.702	16.95798	-39.98265	0.5644494
35.48496	2657.671	16.87169	-39.95654	0.5901769
35.53891	2655.648	16.76524	-39.92935	0.6146079
35.59286	2653.626	16.6404	-39.90115	0.6376531
35.64681	2651.604	16.50089	-39.87199	0.6592471
35.70076	2649.579	16.34841	-39.84199	0.679368
35.75472	2647.548	16.18299	-39.81122	0.6979954
35.80867	2645.503	16.00596	-39.7798	0.7151307
35.86262	2643.434	15.81691	-39.74786	0.7307959
35.91657	2641.334	15.61737	-39.71555	0.745001
35.97052	2639.204	15.41156	-39.68304	0.7577615
36.02448	2637.051	15.20637	-39.65055	0.7690963
36.07843	2634.887	15.00928	-39.61833	0.7790361
36.13238	2632.713	14.82404	-39.58662	0.7876158
36.18633	2630.532	14.64841	-39.55567	0.794867
36.24028	2628.349	14.48219	-39.52573	0.8008156
36.29424	2626.171	14.32806	-39.49704	0.8054868
36.34819	2624.002	14.18734	-39.46979	0.8089107
36.40214	2621.841	14.05763	-39.44417	0.8111262
36.45609	2619.682	13.93634	-39.42035	0.8121609
36.51004	2617.523	13.82258	-39.39845	0.8120497
36.56399	2615.363	13.71644	-39.37856	0.8108212
36.61794	2613.196	13.61541	-39.36069	0.8084971
36.67189	2611.018	13.51853	-39.34481	0.805082
36.72585	2608.823	13.4279	-39.33084	0.8005632
36.7798	2606.612	13.34765	-39.31862	0.7948954
36.83375	2604.384	13.28301	-39.30798	0.7880194
36.8877	2602.148	13.23716	-39.2987	0.7798535
36.94165	2599.912	13.21327	-39.29055	0.770319
36.99561	2597.684	13.21607	-39.28326	0.7593406
37.04956	2595.471	13.24838	-39.27656	0.7468611
37.10351	2593.281	13.3088	-39.27021	0.7328496
37.15746	2591.117	13.39238	-39.26393	0.7173011
37.21141	2588.978	13.49506	-39.25747	0.7002434
37.26536	2586.865	13.61514	-39.25061	0.6817333
37.31931	2584.774	13.74967	-39.24312	0.6618475
37.37326	2582.703	13.89569	-39.23483	0.6406741
37.42722	2580.648	14.04818	-39.22558	0.618323
37.48117	2578.605	14.19836	-39.21525	0.5949146
37.53512	2576.571	14.33839	-39.20375	0.5705809
37.58907	2574.541	14.46447	-39.19101	0.5454662
37.64302	2572.509	14.57633	-39.17694	0.5197258
37.69698	2570.472	14.67384	-39.16151	0.4935352
37.75093	2568.43	14.75714	-39.14466	0.467066
37.80488	2566.382	14.82278	-39.12635	0.440488
37.85883	2564.33	14.86632	-39.10658	0.4139453
37.91278	2562.273	14.88817	-39.08533	0.3875569
37.96674	2560.214	14.89364	-39.06263	0.3614132
38.02069	2558.153	14.89142	-39.03854	0.3355961
38.07464	2556.087	14.89011	-39.01312	0.3101653
38.12859	2554.013	14.89382	-38.98646	0.2851487
38.18254	2551.93	14.9025	-38.95866	0.2605471
38.23649	2549.838	14.91315	-38.92986	0.2363281
38.29044	2547.74	14.92037	-38.9002	0.2124351
38.34439	2545.636	14.91629	-38.86982	0.1888037
38.39835	2543.524	14.89308	-38.83892	0.1653692
38.4523	2541.4	14.84925	-38.80768	0.1420772
38.50625	2539.264	14.78637	-38.77632	0.118902
38.5602	2537.12	14.70787	-38.74506	0.09587603
38.61415	2534.966	14.61652	-38.7141	0.07318117
38.66811	2532.806	14.51806	-38.68359	0.05147673
38.72206	2530.645	14.4168	-38.65366	0.03336184
38.77601	2528.489	14.31564	-38.62441	0.02820596
38.82996	2526.344	14.21659	-38.59591	0.04192094
38.88391	2524.212	14.12132	-38.56824	0.06372393
38.93786	2522.093	14.02998	-38.54141	0.08810271
38.99181	2519.988	13.94652	-38.51543	0.1135689
39.04576	2517.897	13.8748	-38.49031	0.1395422
39.09972	2515.824	13.81539	-38.466	0.1656443
39.15367	2513.766	13.76283	-38.44249	0.191564
39.20762	2511.722	13.71277	-38.41971	0.216987
39.26157	2509.69	13.66273	-38.3976	0.2416244
39.31553	2507.666	13.61177	-38.3761	0.2651949
39.36948	2505.644	13.56024	-38.35515	0.2874497
39.42343	2503.618	13.50632	-38.33471	0.3081574
39.47738	2501.583	13.45005	-38.31475	0.3271315
39.53133	2499.536	13.39367	-38.29523	0.3442281
39.58528	2497.48	13.34009	-38.27612	0.3593613
39.63924	2495.415	13.29303	-38.25736	0.3724835
39.69319	2493.342	13.25613	-38.23891	0.3835774
39.74714	2491.259	13.23145	-38.22074	0.3926626
39.80109	2489.17	13.21801	-38.20279	0.3997782
39.85504	2487.075	13.21445	-38.18502	0.4049694
39.90899	2484.974	13.21986	-38.16739	0.4082839
39.96294	2482.868	13.23551	-38.1498	0.4097483
40.0169	2480.76	13.26279	-38.13216	0.4093599
40.07085	2478.652	13.30525	-38.11436	0.4070997
40.1248	2476.545	13.36485	-38.09623	0.4029285
40.17875	2474.446	13.44291	-38.07759	0.396804
40.2327	2472.359	13.53864	-38.0583	0.3886925
40.28666	2470.292	13.64875	-38.03818	0.3785908
40.34061	2468.246	13.76882	-38.01712	0.3665339
40.39456	2466.22	13.89489	-37.99505	0.3525948
40.44851	2464.216	14.02225	-37.97189	0.3368957
40.50246	2462.232	14.14849	-37.94765	0.3195982
40.55641	2460.266	14.26821	-37.92234	0.300901
40.61036	2458.312	14.37959	-37.89602	0.2810412
40.66431	2456.364	14.48225	-37.86875	0.2602779
40.71827	2454.419	14.57709	-37.84062	0.2388979
40.77222	2452.47	14.66326	-37.81176	0.2171885
40.82617	2450.511	14.7404	-37.7823	0.1954301
40.88012	2448.537	14.80328	-37.75234	0.1738722
40.93407	2446.545	14.84711	-37.72199	0.1527452
40.98803	2444.534	14.86668	-37.69133	0.132261
41.04198	2442.506	14.85944	-37.66046	0.1126358
41.09593	2440.464	14.82785	-37.62941	0.09419396
41.14988	2438.412	14.77712	-37.59824	0.07757992
41.20383	2436.358	14.71297	-37.56699	0.06418309
41.25779	2434.309	14.64034	-37.53571	0.0566299
41.31174	2432.266	14.56488	-37.50445	0.05789557
41.36569	2430.232	14.49237	-37.47328	0.06828491
41.41964	2428.205	14.42914	-37.44226	0.08527236
41.47359	2426.178	14.37827	-37.41145	0.1063937
41.52754	2424.144	14.34102	-37.38093	0.1301694
41.58149	2422.095	14.31618	-37.35082	0.155753
41.63544	2420.023	14.29931	-37.32124	0.1826108
41.6894	2417.925	14.28585	-37.29232	0.210348
41.74335	2415.802	14.27258	-37.26423	0.2386437
41.7973	2413.666	14.2555	-37.23711	0.267215
41.85125	2411.527	14.23096	-37.21111	0.29581
41.9052	2409.397	14.197	-37.18633	0.3241876
41.95916	2407.283	14.15546	-37.16286	0.3521274
42.01311	2405.191	14.11118	-37.14074	0.3794087
42.06706	2403.123	14.06857	-37.11998	0.4058165
42.12101	2401.083	14.03084	-37.10051	0.4311491
42.17496	2399.073	14.00043	-37.08228	0.4552153
42.22891	2397.091	13.97516	-37.06516	0.4778279
42.28286	2395.131	13.95233	-37.049	0.4988051
42.33681	2393.188	13.93242	-37.03363	0.5179784
42.39077	2391.257	13.91878	-37.01888	0.5351749
42.44472	2389.33	13.91309	-37.00455	0.5502466
42.49867	2387.401	13.91628	-36.99046	0.5630388
42.55262	2385.464	13.92722	-36.97646	0.5734294
42.60658	2383.519	13.94329	-36.96238	0.5813169
42.66053	2381.571	13.95816	-36.94812	0.586635
42.71448	2379.627	13.96506	-36.93362	0.5893593
42.76843	2377.688	13.95933	-36.91884	0.5895221
42.82238	2375.757	13.94007	-36.90377	0.5872188
42.87633	2373.832	13.90836	-36.88839	0.5826005
42.93029	2371.912	13.86254	-36.87272	0.5758835
42.98424	2369.996	13.80197	-36.85678	0.5673364
43.03819	2368.077	13.73113	-36.84058	0.5572979
43.09214	2366.148	13.65572	-36.82414	0.5461385
43.14609	2364.206	13.57878	-36.80745	0.5342675
43.20004	2362.251	13.50211	-36.79051	0.5220995
43.25399	2360.282	13.42613	-36.77332	0.5100358
43.30795	2358.302	13.34942	-36.75585	0.4984526
43.3619	2356.313	13.27205	-36.73808	0.4876841
43.41585	2354.322	13.19719	-36.71997	0.4780137
43.4698	2352.332	13.13144	-36.70146	0.4696708
43.52375	2350.348	13.07727	-36.68253	0.4628378
43.57771	2348.374	13.02908	-36.66316	0.4576362
43.63166	2346.412	12.97729	-36.64338	0.4541295
43.68561	2344.461	12.91724	-36.62323	0.4523215
43.73956	2342.516	12.84645	-36.60278	0.4521617
43.79351	2340.569	12.76651	-36.58211	0.45356
43.84746	2338.615	12.67724	-36.5613	0.4563779
43.90141	2336.65	12.5814	-36.54041	0.4604568
43.95536	2334.671	12.48382	-36.51949	0.4655952
44.00932	2332.678	12.39279	-36.49857	0.4715519
44.06327	2330.675	12.3181	-36.47764	0.4780576
44.11722	2328.665	12.27139	-36.4567	0.4848115
44.17117	2326.652	12.25677	-36.43571	0.4915013
44.22512	2324.636	12.27223	-36.41464	0.4978366
44.27908	2322.62	12.31136	-36.39342	0.5035514
44.33303	2320.607	12.37008	-36.37199	0.5084253
44.38698	2318.6	12.44183	-36.35026	0.5122681
44.44093	2316.602	12.51794	-36.32817	0.5149158
44.49488	2314.61	12.59203	-36.30563	0.5162456
44.54883	2312.622	12.6631	-36.28255	0.5161535
44.60279	2310.635	12.73124	-36.25888	0.5145534
44.65674	2308.645	12.79703	-36.23455	0.5113844
44.71069	2306.651	12.85858	-36.20953	0.5065945
44.76464	2304.649	12.91607	-36.1838	0.50016
44.81859	2302.64	12.97199	-36.15735	0.4920754
44.87254	2300.625	13.02649	-36.13021	0.4823772
44.92649	2298.606	13.08	-36.10246	0.4711284
44.98045	2296.586	13.13592	-36.0742	0.4584285
45.0344	2294.567	13.19924	-36.04557	0.4443975
45.08835	2292.554	13.27032	-36.01672	0.429188
45.1423	2290.553	13.34829	-35.9878	0.412952
45.19625	2288.57	13.42814	-35.95894	0.3958691
45.25021	2286.608	13.50044	-35.93026	0.3781185
45.30416	2284.671	13.55269	-35.90182	0.3598974
45.35811	2282.758	13.57271	-35.87366	0.3413988
45.41206	2280.866	13.55964	-35.84576	0.3228129
45.46601	2278.989	13.52009	-35.81809	0.3043306
45.51996	2277.118	13.46015	-35.79059	0.2861401
45.57391	2275.245	13.38541	-35.7632	0.2684181
45.62786	2273.367	13.29888	-35.73583	0.2513412
45.68182	2271.484	13.20161	-35.70842	0.2350628
45.73577	2269.593	13.09766	-35.68092	0.2197444
45.78972	2267.693	12.99307	-35.65329	0.2055637
45.84367	2265.783	12.89146	-35.62553	0.192721
45.89762	2263.865	12.79412	-35.59763	0.1814453
45.95158	2261.943	12.70151	-35.56958	0.1719997
46.00553	2260.026	12.61245	-35.54141	0.1646712
46.05948	2258.121	12.52669	-35.51311	0.1597646
46.11343	2256.234	12.44237	-35.48473	0.1575789
46.16738	2254.365	12.35871	-35.45628	0.1583585
46.22133	2252.511	12.27487	-35.42781	0.1622617
46.27529	2250.668	12.18917	-35.39937	0.1693232
46.32924	2248.831	12.10366	-35.37102	0.1794418
46.38319	2246.996	12.01879	-35.34284	0.1924094
46.43714	2245.162	11.93547	-35.31495	0.2079451
46.49109	2243.325	11.85764	-35.28746	0.2257365
46.54504	2241.487	11.79109	-35.26052	0.2454637
46.599	2239.646	11.73996	-35.23426	0.2668098
46.65295	2237.798	11.70818	-35.20882	0.2894611
46.7069	2235.945	11.69898	-35.18433	0.3130811
46.76085	2234.084	11.71441	-35.1609	0.3373195
46.8148	2232.216	11.75312	-35.13863	0.3618178
46.86876	2230.341	11.80973	-35.11767	0.3862245
46.92271	2228.457	11.8797	-35.09816	0.4101918
46.97666	2226.562	11.96087	-35.08026	0.4333792
47.03061	2224.655	12.04958	-35.06413	0.4554521
47.08456	2222.741	12.14295	-35.0499	0.4761045
47.13851	2220.82	12.23696	-35.03771	0.4950622
47.19246	2218.893	12.32897	-35.02765	0.512082
47.24641	2216.961	12.4197	-35.01976	0.5269739
47.30037	2215.027	12.50809	-35.01408	0.5396096
47.35432	2213.091	12.59145	-35.0106	0.5499296
47.40827	2211.152	12.66943	-35.00925	0.5579453
47.46222	2209.209	12.74114	-35.00996	0.5637168
47.51617	2207.259	12.80867	-35.01258	0.5673608
47.57013	2205.298	12.87287	-35.01694	0.5690244
47.62408	2203.331	12.93244	-35.02283	0.5688769
47.67803	2201.362	12.98465	-35.03003	0.5670875
47.73198	2199.397	13.02804	-35.03828	0.5638199
47.78593	2197.444	13.0579	-35.04728	0.5592435
47.83988	2195.508	13.06966	-35.05675	0.5535125
47.89384	2193.589	13.059	-35.06637	0.5467766
47.94779	2191.691	13.02422	-35.07583	0.5391867
48.00174	2189.811	12.96363	-35.0848	0.5308914
48.05569	2187.95	12.87867	-35.09298	0.5220253
48.10964	2186.105	12.77346	-35.10008	0.5127085
48.16359	2184.274	12.65285	-35.10581	0.503048
48.21754	2182.454	12.5205	-35.10994	0.4931417
48.2715	2180.638	12.37846	-35.11223	0.4830885
48.32545	2178.822	12.22452	-35.11248	0.4729889
48.3794	2177	12.05582	-35.11055	0.4629309
48.43335	2175.169	11.87557	-35.1063	0.4529889
48.4873	2173.329	11.69292	-35.09966	0.443212
48.54126	2171.482	11.51517	-35.09063	0.4336214
48.59521	2169.632	11.34813	-35.0792	0.4242121
48.64916	2167.783	11.19649	-35.0654	0.4149473
48.70311	2165.939	11.06236	-35.0493	0.4057788
48.75706	2164.099	10.94511	-35.03096	0.3966535
48.81101	2162.265	10.84194	-35.01046	0.3875195
48.86496	2160.433	10.75115	-34.98793	0.3783346
48.91891	2158.596	10.67305	-34.96354	0.3690623
48.97287	2156.747	10.60677	-34.93745	0.3596526
49.02682	2154.878	10.55195	-34.90985	0.3500859
49.08077	2152.98	10.50689	-34.88091	0.3403294
49.13472	2151.05	10.46876	-34.85083	0.3303726
49.18867	2149.088	10.43636	-34.81979	0.3201942
49.24263	2147.102	10.4118	-34.78797	0.3097941
49.29658	2145.101	10.39702	-34.75555	0.2992001
49.35053	2143.1	10.39403	-34.72271	0.2884584
49.40448	2141.107	10.40203	-34.68962	0.2776525
49.45843	2139.125	10.42019	-34.65646	0.2668901
49.51238	2137.155	10.4486	-34.62336	0.2563085
49.56634	2135.197	10.48684	-34.59052	0.2460365
49.62029	2133.25	10.53465	-34.55804	0.2361876
49.67424	2131.313	10.5903	-34.52608	0.2268358
49.72819	2129.387	10.6502	-34.49474	0.2180099
49.78214	2127.47	10.70912	-34.46406	0.2096763
49.83609	2125.559	10.76093	-34.43407	0.2017552
49.89005	2123.65	10.80065	-34.40477	0.1941096
49.944	2121.741	10.82393	-34.37609	0.1865701
49.99795	2119.832	10.8309	-34.34797	0.1789528
50.0519	2117.927	10.82733	-34.32033	0.1710606
50.10585	2116.031	10.82173	-34.29306	0.1627008
50.15981	2114.149	10.82556	-34.26607	0.1537161
50.21376	2112.284	10.84984	-34.23928	0.144029
50.26771	2110.443	10.90196	-34.21262	0.1336583
50.32166	2108.627	10.98298	-34.18602	0.1227714
50.37561	2106.839	11.08897	-34.15942	0.1117183
50.42956	2105.074	11.21454	-34.13279	0.1010795
50.48351	2103.328	11.35377	-34.10611	0.09171975
50.53746	2101.592	11.49646	-34.07935	0.08476078
50.59142	2099.858	11.63246	-34.05255	0.08136934
50.64537	2098.119	11.75206	-34.02571	0.08225991
50.69932	2096.365	11.8476	-33.99889	0.08729433
50.75327	2094.594	11.9155	-33.97212	0.09559184
50.80722	2092.807	11.95778	-33.94545	0.1060033
50.86118	2091.005	11.97783	-33.91895	0.1175024
50.91513	2089.193	11.98115	-33.8927	0.129321
50.96908	2087.378	11.97338	-33.86682	0.140937
51.02303	2085.563	11.96268	-33.8414	0.1520443
51.07698	2083.75	11.95545	-33.81657	0.1625137
51.13093	2081.94	11.95679	-33.79248	0.1723583
51.18488	2080.136	11.9672	-33.76926	0.1816996
51.23884	2078.343	11.98238	-33.74703	0.1907322
51.29279	2076.566	11.99521	-33.72593	0.1996951
51.34674	2074.805	11.99691	-33.70604	0.2088404
51.40069	2073.057	11.97858	-33.68745	0.2184002
51.45464	2071.314	11.9349	-33.6702	0.2285594
51.50859	2069.569	11.86794	-33.65433	0.2394292
51.56255	2067.815	11.78306	-33.63986	0.2510762
51.6165	2066.05	11.68538	-33.62681	0.2635033
51.67045	2064.272	11.58324	-33.6152	0.2766949
51.7244	2062.481	11.48477	-33.60502	0.2905978
51.77835	2060.676	11.39754	-33.59629	0.3051555
51.83231	2058.86	11.32669	-33.58897	0.320297
51.88626	2057.036	11.2737	-33.58305	0.3359333
51.94021	2055.21	11.2347	-33.57846	0.3519768
51.99416	2053.387	11.20498	-33.57514	0.3683255
52.04811	2051.571	11.179	-33.573	0.3848871
52.10206	2049.76	11.15185	-33.57195	0.4015555
52.15601	2047.952	11.11876	-33.57188	0.4182211
52.20996	2046.145	11.07484	-33.5727	0.434756
52.26392	2044.335	11.01809	-33.5743	0.4510105
52.31787	2042.524	10.95018	-33.57651	0.4668119
52.37182	2040.71	10.87266	-33.5792	0.4819839
52.42577	2038.892	10.79027	-33.5822	0.4963481
52.47972	2037.069	10.7101	-33.58533	0.5097307
52.53368	2035.236	10.63858	-33.58841	0.5219719
52.58763	2033.39	10.58196	-33.59127	0.5329393
52.64158	2031.526	10.54701	-33.59372	0.5425225
52.69553	2029.647	10.53863	-33.59557	0.5506385
52.74948	2027.76	10.55724	-33.59664	0.5572414
52.80343	2025.869	10.59642	-33.59676	0.5623131
52.85739	2023.981	10.64525	-33.59575	0.5658613
52.91134	2022.103	10.69282	-33.59346	0.5679221
52.96529	2020.24	10.73021	-33.58976	0.5685517
53.01924	2018.394	10.74953	-33.58453	0.567829
53.07319	2016.563	10.74843	-33.57767	0.5658386
53.12714	2014.744	10.72796	-33.56914	0.5626835
53.1811	2012.932	10.69195	-33.55889	0.5584698
53.23505	2011.124	10.64477	-33.54691	0.5532978
53.289	2009.32	10.59109	-33.53321	0.5472632
53.34295	2007.517	10.53257	-33.51784	0.5404599
53.3969	2005.714	10.46847	-33.50081	0.5329643
53.45086	2003.906	10.40168	-33.48217	0.5248429
53.50481	2002.095	10.33964	-33.46198	0.516166
53.55876	2000.279	10.28925	-33.44029	0.506996
53.61271	1998.462	10.25367	-33.41723	0.4974118
53.66666	1996.644	10.23372	-33.39292	0.4874803
53.72061	1994.822	10.22785	-33.36753	0.4772847
53.77456	1992.999	10.23368	-33.34126	0.4669073
53.82851	1991.178	10.24787	-33.31431	0.4564385
53.88247	1989.365	10.26448	-33.28691	0.4459822
53.93642	1987.564	10.27491	-33.25928	0.4356533
53.99037	1985.778	10.27171	-33.23167	0.4255801
54.04432	1984.008	10.25009	-33.20431	0.4158974
54.09827	1982.247	10.20947	-33.17745	0.4067418
54.15223	1980.488	10.15205	-33.15133	0.3982313
54.20618	1978.726	10.08412	-33.12615	0.3904697
54.26013	1976.955	10.01479	-33.10209	0.3835132
54.31408	1975.172	9.95483	-33.07929	0.3773748
54.36803	1973.377	9.91414	-33.05785	0.3720226
54.42198	1971.573	9.901991	-33.03786	0.3673859
54.47593	1969.762	9.918813	-33.01936	0.3633638
54.52989	1967.943	9.957854	-33.00238	0.3598217
54.58384	1966.121	10.01036	-32.98695	0.3566118
54.63779	1964.301	10.06937	-32.97303	0.3535666
54.69174	1962.489	10.12663	-32.96061	0.3505187
54.74569	1960.689	10.1727	-32.9496	0.3472948
54.79964	1958.902	10.19933	-32.93994	0.3437302
54.8536	1957.128	10.203	-32.9315	0.3396796
54.90755	1955.367	10.18323	-32.92414	0.3350109
54.9615	1953.62	10.14025	-32.91767	0.329629
55.01545	1951.884	10.0756	-32.91189	0.3234707
55.0694	1950.154	9.994841	-32.90656	0.3165101
55.12336	1948.429	9.906621	-32.90142	0.3087644
55.17731	1946.708	9.821268	-32.89619	0.3003086
55.23126	1944.991	9.749872	-32.89064	0.2912444
55.28521	1943.28	9.701674	-32.88452	0.2817035
55.33916	1941.574	9.678419	-32.87763	0.2718321
55.39311	1939.874	9.676217	-32.86978	0.2617845
55.44706	1938.179	9.688216	-32.86083	0.2517378
55.50101	1936.49	9.70719	-32.85068	0.2418669
55.55497	1934.811	9.725777	-32.83928	0.2323418
55.60892	1933.138	9.736735	-32.82664	0.2233258
55.66287	1931.469	9.732431	-32.81279	0.2149705
55.71682	1929.795	9.707498	-32.79779	0.2074149
55.77077	1928.114	9.661016	-32.78173	0.20079
55.82473	1926.416	9.597214	-32.76472	0.1952048
55.87868	1924.696	9.524472	-32.74682	0.1907261
55.93263	1922.951	9.452749	-32.72816	0.1873435
55.98658	1921.184	9.391543	-32.70881	0.1849762
56.04053	1919.4	9.348424	-32.6889	0.1834777
56.09448	1917.6	9.326301	-32.66854	0.1826359
56.14843	1915.783	9.323743	-32.64786	0.1821857
56.20239	1913.947	9.336415	-32.62697	0.18183
56.25634	1912.093	9.355822	-32.60596	0.1812775
56.31029	1910.226	9.374079	-32.58492	0.1802638
56.36424	1908.356	9.386026	-32.56393	0.1785591
56.41819	1906.485	9.389042	-32.54305	0.1759823
56.47215	1904.615	9.384949	-32.52234	0.1723974
56.5261	1902.745	9.379258	-32.50183	0.1677171
56.58005	1900.871	9.377123	-32.48151	0.1619208
56.634	1898.993	9.379548	-32.46137	0.1550445
56.68795	1897.114	9.384923	-32.44133	0.1471812
56.74191	1895.237	9.390798	-32.42133	0.1384713
56.79586	1893.365	9.396882	-32.40124	0.1290651
56.84981	1891.508	9.404668	-32.38092	0.1191187
56.90376	1889.673	9.416489	-32.3602	0.1087793
56.95771	1887.866	9.432256	-32.33889	0.0981874
57.01166	1886.087	9.450667	-32.31679	0.08747987
57.06561	1884.331	9.471303	-32.29368	0.07678963
57.11956	1882.592	9.495964	-32.26934	0.06625728
57.17352	1880.864	9.52654	-32.24355	0.05603583
57.22747	1879.141	9.564234	-32.21614	0.04629628
57.28142	1877.423	9.608311	-32.18693	0.03724243
57.33537	1875.709	9.659436	-32.15578	0.02918133
57.38932	1874.005	9.718836	-32.12259	0.02262513
57.44328	1872.31	9.785275	-32.08731	0.01840634
57.49723	1870.628	9.855425	-32.04994	0.01734112
57.55118	1868.961	9.926985	-32.0105	0.01913366
57.60513	1867.307	9.999038	-31.9691	0.02250294
57.65908	1865.665	10.0695	-31.92587	0.02643884
57.71303	1864.035	10.13561	-31.881	0.0304715
57.76698	1862.412	10.1935	-31.83471	0.03445582
57.82094	1860.791	10.24013	-31.78724	0.03842509
57.87489	1859.164	10.27312	-31.73885	0.04252629
57.92884	1857.524	10.2921	-31.68978	0.0469876
57.98279	1855.868	10.29646	-31.64028	0.05207573
58.03674	1854.196	10.288	-31.59061	0.05807113
58.09069	1852.507	10.27148	-31.54099	0.0652327
58.14465	1850.795	10.25462	-31.49166	0.07376319
58.1986	1849.062	10.24005	-31.44283	0.0838065
58.25255	1847.314	10.2269	-31.39469	0.09544773
58.3065	1845.56	10.20877	-31.34743	0.1087243
58.36045	1843.811	10.17656	-31.30124	0.1236339
58.41441	1842.078	10.12052	-31.2563	0.1401315
58.46836	1840.368	10.03695	-31.21278	0.1581267
58.52231	1838.682	9.929256	-31.17083	0.1774942
58.57626	1837.018	9.804205	-31.13056	0.1980715
58.63021	1835.365	9.668975	-31.09202	0.2196745
58.68416	1833.711	9.531271	-31.05523	0.2420983
58.73811	1832.047	9.39974	-31.02013	0.265127
58.79206	1830.369	9.282962	-30.98661	0.2885392
58.84602	1828.677	9.187898	-30.95456	0.3121141
58.89997	1826.972	9.117138	-30.92381	0.3356256
58.95392	1825.256	9.070505	-30.89418	0.358851
59.00787	1823.537	9.047997	-30.86548	0.3815584
59.06182	1821.827	9.050332	-30.8375	0.4035069
59.11578	1820.137	9.075903	-30.81003	0.4244426
59.16973	1818.475	9.119873	-30.78286	0.4440916
59.22368	1816.843	9.173438	-30.75581	0.4621674
59.27763	1815.242	9.227066	-30.7287	0.4783823
59.33158	1813.672	9.275421	-30.70138	0.4924611
59.38553	1812.124	9.316304	-30.67369	0.5041633
59.43948	1810.591	9.348747	-30.64552	0.513271
59.49344	1809.057	9.373771	-30.61676	0.5196041
59.54739	1807.509	9.394595	-30.58728	0.5230097
59.60134	1805.939	9.414512	-30.55701	0.5233838
59.65529	1804.341	9.434162	-30.52587	0.5206627
59.70924	1802.713	9.453567	-30.49383	0.514832
59.7632	1801.054	9.473592	-30.46091	0.5059242
59.81715	1799.367	9.494633	-30.42715	0.4940158
59.8711	1797.659	9.51506	-30.39262	0.4792262
59.92505	1795.942	9.527873	-30.35743	0.4617003
59.979	1794.229	9.522124	-30.32168	0.4416063
60.03296	1792.529	9.489388	-30.2855	0.4191238
60.08691	1790.845	9.429321	-30.24904	0.3944576
60.14086	1789.179	9.345132	-30.21243	0.367833
60.19481	1787.525	9.241557	-30.17578	0.339501
60.24876	1785.876	9.125458	-30.13922	0.3097633
60.30271	1784.223	9.006401	-30.10282	0.2789862
60.35666	1782.558	8.891446	-30.06666	0.247629
60.41061	1780.881	8.781203	-30.03074	0.2162982
60.46457	1779.195	8.675637	-29.99508	0.185855
60.51852	1777.505	8.576058	-29.95965	0.1576
60.57247	1775.818	8.482132	-29.92438	0.1335411
60.62642	1774.138	8.394619	-29.88917	0.1166101
60.68037	1772.467	8.317454	-29.85391	0.1100127
60.73433	1770.807	8.254725	-29.81844	0.114995
60.78828	1769.166	8.208903	-29.78261	0.1294236
60.84223	1767.545	8.177117	-29.74628	0.1496625
60.89618	1765.944	8.154099	-29.70929	0.1727155
60.95013	1764.361	8.136793	-29.67147	0.1966372
61.00408	1762.794	8.125116	-29.63264	0.2202199
61.05803	1761.239	8.117176	-29.59262	0.2426871
61.11198	1759.691	8.11458	-29.55117	0.2635303
61.16594	1758.145	8.120876	-29.50807	0.2824101
61.21989	1756.597	8.139297	-29.4631	0.2991105
61.27384	1755.048	8.171516	-29.41603	0.3135038
61.32779	1753.503	8.217912	-29.36669	0.3255368
61.38174	1751.963	8.275411	-29.31488	0.3352222
61.4357	1750.427	8.340749	-29.26046	0.3426181
61.48965	1748.891	8.410754	-29.20326	0.3478165
61.5436	1747.352	8.484734	-29.14316	0.3509352
61.59755	1745.809	8.561035	-29.08002	0.3521116
61.6515	1744.26	8.6382	-29.01374	0.3515054
61.70546	1742.708	8.714812	-28.94424	0.3492904
61.75941	1741.151	8.791573	-28.87146	0.3456391
61.81336	1739.589	8.870485	-28.79538	0.3407079
61.86731	1738.021	8.953144	-28.71597	0.3346477
61.92126	1736.448	9.038675	-28.63328	0.3276067
61.97521	1734.87	9.123221	-28.54731	0.3197224
62.02916	1733.289	9.203502	-28.45813	0.3111375
62.08311	1731.707	9.277965	-28.3658	0.3019822
62.13707	1730.13	9.344298	-28.27038	0.2923891
62.19102	1728.561	9.400143	-28.17194	0.2824775
62.24497	1727.002	9.445763	-28.07054	0.2723743
62.29892	1725.45	9.483681	-27.96619	0.2621998
62.35287	1723.902	9.514371	-27.85889	0.2520764
62.40683	1722.357	9.538282	-27.74859	0.2421262
62.46078	1720.818	9.557701	-27.6352	0.232471
62.51473	1719.281	9.573462	-27.5186	0.2232349
62.56868	1717.743	9.58637	-27.39864	0.2145455
62.62263	1716.2	9.595511	-27.27516	0.2065606
62.67658	1714.651	9.600438	-27.14797	0.1994594
62.73053	1713.097	9.601881	-27.01686	0.1934308
62.78448	1711.544	9.598025	-26.88165	0.1886816
62.83844	1709.996	9.584983	-26.74215	0.1854114
62.89239	1708.457	9.563354	-26.59817	0.1838093
62.94634	1706.932	9.536799	-26.44952	0.1840038
63.00029	1705.426	9.504646	-26.29598	0.1860718
63.05424	1703.94	9.460402	-26.13731	0.1900038
63.1082	1702.473	9.39812	-25.97324	0.195712
63.16215	1701.021	9.313927	-25.80349	0.2030361
63.2161	1699.579	9.210031	-25.62773	0.211773
63.27005	1698.148	9.093948	-25.44561	0.2216908
63.324	1696.728	8.974579	-25.25678	0.2325225
63.37796	1695.319	8.859207	-25.06085	0.244007
63.43191	1693.919	8.751331	-24.85742	0.2558914
63.48586	1692.526	8.649796	-24.64608	0.2679353
63.53981	1691.14	8.552027	-24.42642	0.2799444
63.59376	1689.763	8.457422	-24.19803	0.2917581
63.64771	1688.396	8.367653	-23.96052	0.3032579
63.70166	1687.047	8.281898	-23.71349	0.314368
63.75562	1685.716	8.198812	-23.4566	0.325075
63.80957	1684.403	8.115132	-23.18948	0.3354362
63.86352	1683.107	8.028493	-22.91177	0.3455757
63.91747	1681.83	7.938076	-22.62313	0.3557096
63.97142	1680.573	7.844089	-22.3232	0.366108
64.02538	1679.335	7.746243	-22.01159	0.3771141
64.07932	1678.116	7.647603	-21.68794	0.3891256
64.13328	1676.917	7.55172	-21.35183	0.4025969
64.18723	1675.736	7.464918	-21.00287	0.4179628
64.24118	1674.567	7.393896	-20.64063	0.4356592
64.29514	1673.402	7.345031	-20.26465	0.4560497
64.34908	1672.239	7.322392	-19.87445	0.4794514
64.40304	1671.076	7.3293	-19.46951	0.5060679
64.45699	1669.916	7.365794	-19.04928	0.5360347
64.51094	1668.759	7.431148	-18.61319	0.5694058
64.56489	1667.609	7.522843	-18.16062	0.6061296
64.61884	1666.47	7.636713	-17.69097	0.6460776
64.67279	1665.347	7.765371	-17.20356	0.6890237
64.72675	1664.242	7.899333	-16.69775	0.7347132
64.7807	1663.163	8.028608	-16.1728	0.7828166
64.83465	1662.114	8.147146	-15.62802	0.8330199
64.8886	1661.099	8.254294	-15.06266	0.8849704
64.94255	1660.12	8.353452	-14.47601	0.9383978
64.99651	1659.18	8.448678	-13.86728	0.9929999
65.05045	1658.277	8.544057	-13.2357	1.048558
65.10441	1657.406	8.641368	-12.58045	1.104862
65.15836	1656.56	8.7411	-11.90068	1.161744
65.21231	1655.733	8.844259	-11.19557	1.219082
65.26626	1654.923	8.954	-10.46419	1.276696
65.32021	1654.131	9.072996	-9.705654	1.334564
65.37417	1653.352	9.203444	-8.918978	1.392532
65.42812	1652.588	9.344341	-8.103247	1.450612
65.48207	1651.845	9.491909	-7.257421	1.508721
65.53602	1651.134	9.641537	-6.380525	1.566901
65.58997	1650.462	9.790321	-5.471545	1.625181
65.64392	1649.839	9.936	-4.529479	1.683646
65.69788	1649.271	10.07494	-3.553308	1.742401
65.75182	1648.76	10.2012	-2.542052	1.801554
65.80578	1648.31	10.30971	-1.49472	1.861232
65.85973	1647.922	10.39876	-0.4103295	1.921612
65.91368	1647.596	10.47183	0.7121016	1.982879
65.96764	1647.325	10.53349	1.873543	2.045279
66.02158	1647.105	10.58982	3.074957	2.109077
66.07554	1646.934	10.64786	4.317327	2.17464
66.12949	1646.808	10.71307	5.601586	2.242285
66.18344	1646.727	10.7884	6.928628	2.312452
66.23739	1646.691	10.87416	8.299415	2.385506
66.29134	1646.703	10.96876	9.714808	2.461908
66.34529	1646.779	11.07215	11.1757	2.542076
66.39925	1646.927	11.18426	12.68297	2.626376
66.4532	1647.157	11.30256	14.23746	2.71526
66.50715	1647.473	11.42318	15.84001	2.809
66.5611	1647.882	11.54363	17.49139	2.907956
66.61505	1648.387	11.66258	19.19246	3.012315
66.66901	1648.99	11.78074	20.94394	3.12233
66.72295	1649.69	11.89955	22.7467	3.238058
66.77691	1650.48	12.01878	24.60147	3.359602
66.83086	1651.357	12.13745	26.5091	3.48689
66.88481	1652.317	12.25649	28.47028	3.619895
66.93877	1653.365	12.37867	30.48587	3.758375
66.99271	1654.5	12.50618	32.55653	3.902196
67.04667	1655.729	12.64089	34.68307	4.051041
67.10062	1657.057	12.78264	36.86611	4.204676
67.15457	1658.492	12.92959	39.10642	4.362712
67.20852	1660.045	13.07844	41.40461	4.524854
67.26247	1661.724	13.22792	43.76132	4.69072
67.31642	1663.536	13.37567	46.17718	4.859931
67.37038	1665.484	13.5211	48.65277	5.032116
67.42432	1667.565	13.6627	51.18876	5.206806
67.47828	1669.783	13.80074	53.78557	5.383724
67.53223	1672.143	13.9393	56.44394	5.562331
67.58618	1674.649	14.08544	59.16426	5.742342
67.64014	1677.305	14.24303	61.94728	5.923188
67.69408	1680.109	14.41388	64.79341	6.104536
67.74804	1683.063	14.5973	67.70332	6.285845
67.80199	1686.172	14.79453	70.67746	6.466694
67.85594	1689.438	15.00761	73.71644	6.64656
67.90989	1692.868	15.23911	76.82068	6.825051
67.96384	1696.465	15.49043	79.99066	7.001715
68.01779	1700.235	15.76371	83.22678	7.176173
68.07175	1704.184	16.06129	86.52932	7.348174
68.1257	1708.315	16.38626	89.89861	7.517365
68.17965	1712.632	16.74112	93.33479	7.683628
68.2336	1717.131	17.12636	96.83806	7.846702
68.28755	1721.811	17.54203	100.4085	8.00655
68.34151	1726.674	17.98908	104.046	8.163063
68.39545	1731.724	18.46577	107.7507	8.316169
68.44941	1736.964	18.97077	111.5224	8.465855
68.50336	1742.398	19.50159	115.361	8.612097
68.55731	1748.032	20.05651	119.2663	8.754922
68.61127	1753.873	20.63806	123.2379	8.894356
68.66521	1759.93	21.25053	127.2756	9.030481
68.71917	1766.21	21.89785	131.3789	9.163361
68.77312	1772.718	22.57471	135.5476	9.293085
68.82707	1779.46	23.27328	139.781	9.419779
68.88102	1786.443	23.98373	144.0785	9.543523
68.93497	1793.668	24.69763	148.4395	9.664474
68.98892	1801.137	25.40757	152.8634	9.782619
69.04288	1808.849	26.11036	157.349	9.898108
69.09682	1816.805	26.8066	161.8957	10.01081
69.15078	1825.004	27.4965	166.5021	10.12085
69.20473	1833.451	28.18137	171.1673	10.22808
69.25868	1842.152	28.86239	175.8898	10.33249
69.31264	1851.115	29.54324	180.6682	10.43388
69.36658	1860.345	30.22646	185.5009	10.53214
69.42054	1869.845	30.90955	190.386	10.62698
69.47449	1879.617	31.58951	195.3216	10.7181
69.52844	1889.669	32.26577	200.3055	10.8051
69.58239	1900.004	32.93978	205.3352	10.88752
69.63634	1910.625	33.61604	210.408	10.96483
69.6903	1921.535	34.29802	215.5209	11.03634
69.74425	1932.735	34.98603	220.6704	11.10146
69.7982	1944.229	35.67768	225.8532	11.1593
69.85215	1956.026	36.36858	231.0649	11.20911
69.90611	1968.132	37.0505	236.3013	11.24991
69.96005	1980.551	37.71739	241.5574	11.28086
70.01401	1993.284	38.36418	246.828	11.30094
70.06796	2006.333	38.98487	252.1073	11.30926
70.12191	2019.706	39.57603	257.389	11.30482
70.17586	2033.41	40.13569	262.6663	11.28671
70.22981	2047.449	40.66625	267.932	11.25407
70.28377	2061.826	41.17339	273.1781	11.206
70.33772	2076.541	41.66523	278.3965	11.14171
70.39167	2091.595	42.15018	283.5783	11.06044
70.44562	2106.988	42.63807	288.7143	10.96151
70.49957	2122.719	43.13649	293.7948	10.84428
70.55352	2138.785	43.65292	298.8098	10.70823
70.60748	2155.183	44.18906	303.7489	10.55288
70.66142	2171.908	44.74432	308.6014	10.37791
70.71538	2188.96	45.3142	313.3564	10.183
70.76933	2206.339	45.89235	318.0029	9.968118
70.82328	2224.051	46.46934	322.5297	9.733149
70.87724	2242.096	47.03876	326.9256	9.478204
70.93118	2260.48	47.59238	331.1793	9.203508
70.98514	2279.204	48.12789	335.2797	8.909354
71.03909	2298.271	48.64734	339.2155	8.59622
71.09304	2317.678	49.15872	342.9761	8.264491
71.14699	2337.423	49.67426	346.5507	7.914992
71.20094	2357.503	50.20962	349.9291	7.548282
71.25489	2377.917	50.78024	353.1013	7.165408
71.30885	2398.658	51.40114	356.0583	6.767109
71.3628	2419.716	52.08752	358.7905	6.35482
71.41675	2441.082	52.84553	361.2903	5.929215
71.4707	2462.748	53.66904	363.5493	5.491939
71.52465	2484.713	54.54047	365.5609	5.043979
71.57861	2506.972	55.43563	367.3183	4.586969
71.63255	2529.521	56.33052	368.8161	4.122081
71.68651	2552.35	57.20187	370.049	3.650828
71.74046	2575.456	58.02891	371.0131	3.17467
71.79441	2598.831	58.79631	371.7047	2.694979
71.84836	2622.471	59.48996	372.121	2.213549
71.90231	2646.366	60.10131	372.2605	1.7318
71.95627	2670.496	60.62735	372.1214	1.252565
72.01022	2694.828	61.07331	371.7042	0.7803608
72.06417	2719.325	61.44963	371.0083	0.3432941
72.11812	2743.944	61.76753	370.0357	0.2955055
72.17207	2768.64	62.0327	368.7876	0.711786
72.22602	2793.365	62.24665	367.267	1.166611
72.27998	2818.071	62.40277	365.4765	1.622329
72.33392	2842.708	62.48856	363.4202	2.073442
72.38788	2867.229	62.48558	361.1022	2.517629
72.44183	2891.593	62.37718	358.5273	2.953413
72.49578	2915.759	62.15149	355.701	3.380074
72.54974	2939.693	61.80178	352.6288	3.796406
72.60368	2963.356	61.32739	349.3174	4.201962
72.65764	2986.708	60.73561	345.773	4.595626
72.71159	3009.704	60.03948	342.003	4.977077
72.76554	3032.3	59.25396	338.015	5.345625
72.81949	3054.448	58.39577	333.8168	5.700722
72.87344	3076.101	57.48045	329.4168	6.04205
72.92739	3097.221	56.52599	324.8235	6.368914
72.98135	3117.771	55.55294	320.0463	6.681403
73.0353	3137.72	54.57152	315.0943	6.978896
73.08925	3157.036	53.58667	309.9773	7.261547
73.1432	3175.695	52.59911	304.7053	7.528994
73.19715	3193.686	51.60751	299.2887	7.781218
73.25111	3211.015	50.60176	293.7382	8.018151
73.30505	3227.69	49.57375	288.0645	8.239546
73.35901	3243.726	48.5181	282.2788	8.445383
73.41296	3259.135	47.43469	276.3923	8.635362
73.46691	3273.933	46.32433	270.4164	8.809394
73.52086	3288.128	45.19349	264.3626	8.967108
73.57481	3301.73	44.04958	258.2426	9.108418
73.62877	3314.744	42.90523	252.0681	9.233017
73.68272	3327.177	41.77639	245.8509	9.340738
73.73667	3339.039	40.68269	239.603	9.431394
73.79062	3350.346	39.64141	233.3361	9.504873
73.84457	3361.115	38.66965	227.0621	9.561066
73.89852	3371.364	37.77642	220.7928	9.599878
73.95248	3381.106	36.96327	214.5398	9.621301
74.00642	3390.363	36.22526	208.3147	9.625278
74.06038	3399.149	35.56015	202.1286	9.611805
74.11433	3407.491	34.96655	195.9926	9.58109
74.16828	3415.418	34.43819	189.9173	9.533178
74.22224	3422.962	33.96838	183.9129	9.468517
74.27618	3430.155	33.55088	177.9892	9.387368
74.33014	3437.014	33.18031	172.1557	9.290291
74.38409	3443.556	32.85419	166.4207	9.177736
74.43804	3449.792	32.57552	160.7928	9.050545
74.49199	3455.742	32.34585	155.2791	8.909336
74.54594	3461.425	32.16709	149.8866	8.755108
74.59989	3466.863	32.04461	144.6213	8.588873
74.65385	3472.077	31.98352	139.4887	8.411656
74.7078	3477.087	31.9845	134.4933	8.224706
74.76175	3481.909	32.04173	129.639	8.029194
74.8157	3486.558	32.13859	124.9287	7.826507
74.86965	3491.05	32.25458	120.3647	7.617959
74.92361	3495.405	32.37305	115.9485	7.404943
74.97755	3499.644	32.47945	111.6807	7.188896
75.03151	3503.782	32.55636	107.5615	6.971208
75.08546	3507.83	32.58688	103.5902	6.753307
75.13941	3511.794	32.55837	99.76532	6.53647
75.19336	3515.684	32.46449	96.08516	6.322171
75.24731	3519.501	32.3075	92.54704	6.111351
75.30127	3523.248	32.09525	89.14816	5.905303
75.35522	3526.925	31.83624	85.88484	5.704756
75.40917	3530.533	31.53699	82.75338	5.510682
75.46312	3534.074	31.20856	79.74938	5.323614
75.51707	3537.551	30.86217	76.86816	5.144052
75.57102	3540.962	30.50237	74.10499	4.972481
75.62498	3544.306	30.12929	71.45465	4.809034
75.67892	3547.578	29.74026	68.91218	4.654071
75.73288	3550.774	29.33006	66.47205	4.507451
75.78683	3553.897	28.89515	64.12919	4.369387
75.84078	3556.944	28.43593	61.87814	4.239691
75.89474	3559.914	27.95591	59.71396	4.118507
75.94868	3562.807	27.45582	57.6315	4.005744
76.00264	3565.619	26.94268	55.62605	3.901486
76.05659	3568.339	26.42908	53.69302	3.805861
76.11054	3570.962	25.93064	51.82811	3.719065
76.16449	3573.491	25.46545	50.02726	3.641397
76.21844	3575.938	25.05037	48.28668	3.573238
76.27239	3578.315	24.69554	46.60294	3.515127
76.32635	3580.634	24.40671	44.97282	3.467556
76.3803	3582.899	24.18612	43.3935	3.431204
76.43425	3585.114	24.03475	41.86239	3.406664
76.4882	3587.282	23.94786	40.37731	3.394637
76.54215	3589.402	23.92056	38.93628	3.395665
76.59611	3591.466	23.94622	37.53768	3.410195
76.65005	3593.47	24.01356	36.18009	3.438487
76.70401	3595.407	24.10583	34.86238	3.480485
76.75796	3597.276	24.20657	33.58358	3.535882
76.81191	3599.076	24.3037	32.34296	3.603992
76.86586	3600.808	24.38865	31.13995	3.68394
76.91982	3602.473	24.45777	29.97413	3.774427
76.97377	3604.067	24.51154	28.84516	3.874051
77.02772	3605.58	24.55244	27.7528	3.981054
77.08167	3607.004	24.58177	26.69681	4.093641
77.13562	3608.343	24.5999	25.67702	4.209833
77.18958	3609.599	24.60671	24.69328	4.327688
77.24352	3610.779	24.60365	23.74541	4.445319
77.29748	3611.886	24.58842	22.83324	4.560918
77.35143	3612.915	24.55789	21.95664	4.672879
77.40538	3613.861	24.51141	21.11537	4.77963
77.45934	3614.712	24.45474	20.30923	4.879872
77.51328	3615.465	24.39538	19.53788	4.972336
77.56724	3616.114	24.34488	18.80106	5.056025
77.62119	3616.656	24.31728	18.09837	5.129996
77.67514	3617.089	24.33307	17.42938	5.193529
77.72909	3617.414	24.41157	16.79364	5.246008
77.78304	3617.639	24.57215	16.19053	5.287123
77.83699	3617.773	24.83311	15.61956	5.316449
77.89095	3617.825	25.20968	15.08	5.333969
77.94489	3617.808	25.71139	14.57136	5.339571
77.99885	3617.731	26.33602	14.09288	5.333434
78.0528	3617.607	27.06856	13.64405	5.315668
78.10675	3617.442	27.88863	13.22412	5.286611
78.16071	3617.248	28.77655	12.83263	5.246512
78.21465	3617.033	29.71495	12.46886	5.195843
78.26861	3616.807	30.6831	12.13236	5.134953
78.32256	3616.582	31.65383	11.82264	5.064328
78.37651	3616.375	32.59776	11.53928	4.984414
78.43046	3616.201	33.48855	11.28199	4.895686
78.48441	3616.076	34.3078	11.05045	4.798529
78.53837	3616.015	35.04947	10.8445	4.693371
78.59232	3616.028	35.71568	10.66391	4.580513
78.64627	3616.118	36.31239	10.50853	4.460265
78.70022	3616.282	36.84432	10.37813	4.332816
78.75417	3616.515	37.31841	10.27247	4.198324
78.80812	3616.813	37.74318	10.19128	4.056901
78.86208	3617.178	38.12093	10.13426	3.908577
78.91602	3617.615	38.44505	10.10102	3.753421
78.96998	3618.124	38.70443	10.09115	3.59129
79.02393	3618.702	38.88766	10.10411	3.422148
79.07788	3619.345	38.98496	10.13929	3.245749
79.13184	3620.047	38.98912	10.19596	3.062001
79.18578	3620.803	38.89676	10.27327	2.870708
79.23974	3621.606	38.70758	10.37026	2.671854
79.29369	3622.452	38.42874	10.48582	2.465395
79.34764	3623.338	38.07893	10.61871	2.251441
79.40159	3624.263	37.68368	10.76759	2.030142
79.45554	3625.218	37.26908	10.93098	1.801807
79.50949	3626.195	36.85913	11.10732	1.566875
79.56345	3627.183	36.47512	11.29492	1.325973
79.61739	3628.17	36.13553	11.49205	1.079975
79.67135	3629.14	35.85259	11.69687	0.8301108
79.7253	3630.086	35.63366	11.90752	0.578445
79.77925	3631.003	35.47717	12.12211	0.3304678
79.83321	3631.891	35.37288	12.33877	0.130243
79.88715	3632.753	35.30798	12.55565	0.2434639
79.94111	3633.591	35.26795	12.77092	0.4843892
79.99506	3634.408	35.23957	12.9828	0.7337673
80.04901	3635.205	35.2063	13.18961	0.9812934
80.10296	3635.984	35.15536	13.38973	1.223684
80.15691	3636.752	35.0836	13.58169	1.458933
80.21087	3637.513	34.99654	13.76413	1.685339
80.26482	3638.271	34.90361	13.93591	1.90152
80.31877	3639.028	34.81877	14.09604	2.106175
80.37272	3639.781	34.75381	14.24378	2.298279
80.42667	3640.522	34.71816	14.37856	2.4769
80.48062	3641.249	34.72084	14.50007	2.641388
80.53458	3641.97	34.76521	14.60813	2.791209
80.58852	3642.687	34.84867	14.70278	2.926141
80.64248	3643.407	34.95512	14.78417	3.046114
80.69643	3644.131	35.05991	14.85257	3.151322
80.75038	3644.86	35.13946	14.90837	3.242181
80.80434	3645.603	35.17583	14.95203	3.319299
80.85828	3646.368	35.1542	14.98406	3.383493
80.91224	3647.162	35.0668	15.00501	3.435753
80.96619	3647.989	34.90965	15.01543	3.477253
81.02014	3648.852	34.68355	15.01588	3.50931
81.07409	3649.747	34.39285	15.00692	3.533378
81.12804	3650.674	34.04282	14.98909	3.550987
81.18199	3651.623	33.64031	14.96292	3.563757
81.23595	3652.581	33.19624	14.92887	3.573277
81.2899	3653.536	32.72575	14.88739	3.581184
81.34385	3654.481	32.24364	14.8388	3.589037
81.3978	3655.412	31.75935	14.78338	3.598371
81.45175	3656.326	31.27476	14.72129	3.610551
81.50571	3657.226	30.79068	14.65259	3.626825
81.55965	3658.115	30.30014	14.57722	3.648215
81.61361	3658.999	29.79752	14.495	3.675576
81.66756	3659.883	29.28455	14.4056	3.709519
81.72151	3660.766	28.77277	14.30857	3.750482
81.77546	3661.645	28.2749	14.20331	3.798672
81.82941	3662.514	27.80438	14.08915	3.854126
81.88337	3663.374	27.36625	13.96528	3.916682
81.93732	3664.22	26.96452	13.83081	3.986004
81.99127	3665.047	26.60396	13.68478	4.061598
82.04522	3665.852	26.29027	13.52616	4.14285
82.09917	3666.631	26.03315	13.35392	4.22908
82.15312	3667.382	25.83528	13.16701	4.319556
82.20708	3668.105	25.69329	12.96442	4.413533
82.26102	3668.806	25.6011	12.74512	4.510224
82.31498	3669.49	25.54946	12.50819	4.608871
82.36893	3670.166	25.52856	12.2527	4.708631
82.42288	3670.841	25.53036	11.97786	4.808752
82.47684	3671.519	25.55117	11.68287	4.908416
82.53078	3672.204	25.59216	11.3671	5.006912
82.58474	3672.901	25.65233	11.02994	5.103498
82.63869	3673.613	25.72671	10.67093	5.197544
82.69264	3674.334	25.8087	10.28961	5.288435
82.74659	3675.059	25.88947	9.885689	5.375689
82.80054	3675.784	25.95861	9.458889	5.458859
82.85449	3676.509	26.00969	9.009033	5.537612
82.90845	3677.231	26.03998	8.536025	5.611706
82.9624	3677.949	26.04718	8.039798	5.680949
83.01635	3678.663	26.02847	7.520391	5.745282
83.0703	3679.371	25.97916	6.977845	5.80468
83.12425	3680.071	25.89083	6.412334	5.859272
83.17821	3680.758	25.75698	5.82409	5.909263
83.23215	3681.429	25.57627	5.213427	5.954971
83.28611	3682.082	25.35251	4.58073	5.996818
83.34006	3682.715	25.09093	3.926445	6.035306
83.39401	3683.32	24.79532	3.251089	6.07101
83.44796	3683.891	24.4699	2.555243	6.104528
83.50191	3684.421	24.1162	1.839544	6.136514
83.55587	3684.899	23.7347	1.10465	6.167557
83.60982	3685.318	23.32858	0.3512352	6.198253
83.66377	3685.68	22.89994	-0.4200316	6.229104
83.71772	3685.988	22.45318	-1.208496	6.260593
83.77168	3686.246	21.99194	-2.013498	6.293146
83.82562	3686.457	21.52639	-2.834466	6.327097
83.87958	3686.621	21.06295	-3.670817	6.362737
83.93353	3686.74	20.60902	-4.522095	6.40019
83.98748	3686.813	20.17172	-5.387759	6.439591
84.04143	3686.836	19.76549	-6.267407	6.480885
84.09538	3686.795	19.40616	-7.160562	6.524027
84.14934	3686.679	19.10736	-8.066817	6.568842
84.20329	3686.475	18.87832	-8.985697	6.615156
84.25724	3686.173	18.72073	-9.916722	6.662709
84.31119	3685.769	18.62851	-10.85937	6.711197
84.36514	3685.267	18.58857	-11.81309	6.760269
84.41909	3684.677	18.58463	-12.7773	6.809521
84.47305	3684.001	18.60873	-13.75137	6.858513
84.52699	3683.247	18.65791	-14.73469	6.906736
84.58095	3682.419	18.7284	-15.72654	6.953683
84.6349	3681.522	18.81585	-16.72625	6.998758
84.68885	3680.562	18.91415	-17.73308	7.041371
84.74281	3679.539	19.01895	-18.74632	7.080865
84.79675	3678.457	19.12995	-19.76518	7.116609
84.85071	3677.313	19.25188	-20.78891	7.147972
84.90466	3676.099	19.39065	-21.81674	7.174331
84.95861	3674.81	19.54712	-22.84788	7.195092
85.01256	3673.44	19.71835	-23.88155	7.209663
85.06651	3671.982	19.90017	-24.91698	7.217505
85.12046	3670.433	20.08531	-25.95335	7.21809
85.17442	3668.79	20.2647	-26.98985	7.210945
85.22837	3667.054	20.42381	-28.02561	7.195636
85.28232	3665.23	20.54634	-29.05978	7.171793
85.33627	3663.326	20.62642	-30.09144	7.139107
85.39022	3661.352	20.66547	-31.11966	7.097335
85.44418	3659.323	20.66261	-32.14344	7.046316
85.49812	3657.253	20.61634	-33.16179	6.985973
85.55208	3655.15	20.53034	-34.17364	6.916305
85.60603	3653.024	20.41279	-35.17794	6.83743
85.65998	3650.881	20.27558	-36.17363	6.749518
85.71394	3648.726	20.12553	-37.15963	6.652887
85.76788	3646.555	19.9646	-38.1349	6.547947
85.82184	3644.363	19.79407	-39.09841	6.435248
85.87579	3642.142	19.61247	-40.0492	6.315415
85.92974	3639.892	19.41924	-40.98636	6.189152
85.98369	3637.616	19.21088	-41.90908	6.057235
86.03764	3635.317	18.98552	-42.81663	5.920465
86.09159	3632.991	18.7419	-43.70835	5.779682
86.14555	3630.628	18.47827	-44.58371	5.635705
86.19949	3628.221	18.20271	-45.44224	5.489386
86.25345	3625.764	17.93498	-46.28362	5.341513
86.3074	3623.253	17.69173	-47.10753	5.19291
86.36135	3620.686	17.48375	-47.91376	5.044343
86.41531	3618.062	17.3192	-48.70216	4.896562
86.46925	3615.376	17.20712	-49.47263	4.750283
86.52321	3612.634	17.1544	-50.22514	4.60619
86.57716	3609.838	17.1647	-50.9597	4.464945
86.63111	3606.99	17.2408	-51.67636	4.327181
86.68506	3604.091	17.38053	-52.37517	4.193498
86.73901	3601.141	17.57365	-53.05629	4.064409
86.79296	3598.141	17.8056	-53.71979	3.940416
86.84692	3595.099	18.06309	-54.36589	3.821898
86.90087	3592.018	18.33666	-54.99472	3.709247
86.95482	3588.898	18.62083	-55.60658	3.602723
87.00877	3585.731	18.9117	-56.20172	3.502557
87.06272	3582.513	19.20841	-56.78048	3.40888
87.11668	3579.24	19.51187	-57.34321	3.321767
87.17062	3575.913	19.82048	-57.89032	3.241165
87.22458	3572.535	20.12435	-58.42221	3.166981
87.27853	3569.111	20.4128	-58.93927	3.09903
87.33248	3565.644	20.6782	-59.44191	3.037065
87.38644	3562.147	20.91595	-59.93052	2.980778
87.44038	3558.627	21.11742	-60.40546	2.929787
87.49434	3555.084	21.26592	-60.86707	2.883642
87.54829	3551.515	21.34678	-61.31565	2.841817
87.60224	3547.916	21.35106	-61.75147	2.803749
87.65619	3544.292	21.27896	-62.17473	2.768854
87.71014	3540.65	21.14006	-62.58559	2.736535
87.76409	3536.997	20.95034	-62.98414	2.706245
87.81805	3533.335	20.7323	-63.37046	2.677449
87.87199	3529.665	20.50728	-63.74459	2.649712
87.92595	3525.986	20.28949	-64.10658	2.622662
87.9799	3522.303	20.09045	-64.45647	2.596034
88.03385	3518.618	19.91964	-64.79432	2.569686
88.08781	3514.928	19.77826	-65.12024	2.543544
88.14175	3511.229	19.66608	-65.43432	2.51769
88.19571	3507.517	19.57913	-65.73675	2.49222
88.24966	3503.796	19.51003	-66.02773	2.467367
88.30361	3500.073	19.45287	-66.30757	2.443385
88.35756	3496.355	19.40291	-66.57656	2.42066
88.41151	3492.644	19.35818	-66.83514	2.399569
88.46547	3488.938	19.32051	-67.08373	2.380588
88.51942	3485.241	19.28918	-67.32291	2.36412
88.57337	3481.554	19.26792	-67.55321	2.350639
88.62732	3477.882	19.2666	-67.77525	2.340546
88.68127	3474.225	19.29762	-67.98961	2.334217
88.73522	3470.578	19.37444	-68.1969	2.331979
88.78918	3466.937	19.50603	-68.39772	2.3341
88.84312	3463.302	19.69266	-68.59266	2.340748
88.89708	3459.672	19.92866	-68.7823	2.352011
88.95103	3456.041	20.20361	-68.9672	2.367882
89.00498	3452.403	20.5045	-69.14794	2.388263
89.05894	3448.751	20.81524	-69.32506	2.412968
89.11288	3445.077	21.11857	-69.49911	2.441732
89.16684	3441.373	21.39948	-69.67065	2.474196
89.22079	3437.627	21.64813	-69.84016	2.509949
89.27474	3433.838	21.86023	-70.00816	2.548488
89.32869	3430.015	22.03996	-70.17513	2.589271
89.38264	3426.176	22.19717	-70.34155	2.63168
89.43659	3422.337	22.34016	-70.50787	2.675073
89.49055	3418.51	22.47582	-70.67451	2.718773
89.54449	3414.699	22.60846	-70.84183	2.762099
89.59845	3410.905	22.7391	-71.01009	2.804337
89.6524	3407.126	22.86585	-71.1795	2.844815
89.70635	3403.357	22.98199	-71.35017	2.882839
89.76031	3399.595	23.08033	-71.52213	2.917742
89.81425	3395.841	23.15456	-71.6953	2.948883
89.86821	3392.088	23.19817	-71.86957	2.975662
89.92216	3388.333	23.20558	-72.04472	2.997524
89.97611	3384.571	23.17601	-72.22046	3.013984
90.03006	3380.797	23.11225	-72.39646	3.02466
90.08401	3377.004	23.02419	-72.57232	3.029245
90.13797	3373.191	22.92374	-72.74762	3.027552
90.19192	3369.357	22.81998	-72.92193	3.019476
90.24587	3365.505	22.72104	-73.09483	3.005054
90.29982	3361.632	22.63254	-73.26592	2.98439
90.35378	3357.739	22.55934	-73.43479	2.957734
90.40772	3353.825	22.50536	-73.60107	2.925395
90.46168	3349.888	22.47238	-73.7644	2.88779
90.51563	3345.923	22.45843	-73.92449	2.845365
90.56958	3341.928	22.45768	-74.08109	2.798617
90.62353	3337.907	22.45845	-74.2339	2.748066
90.67748	3333.862	22.45022	-74.38271	2.694268
90.73144	3329.793	22.42481	-74.52727	2.637784
90.78539	3325.704	22.37868	-74.66737	2.579189
90.83934	3321.595	22.31432	-74.8028	2.519031
90.89329	3317.472	22.24023	-74.9334	2.457861
90.94724	3313.337	22.16842	-75.05898	2.396202
91.00119	3309.19	22.11006	-75.17939	2.334541
91.05515	3305.031	22.07146	-75.29446	2.273335
91.10909	3300.855	22.05506	-75.40404	2.213
91.16305	3296.658	22.05855	-75.50799	2.153909
91.217	3292.438	22.07457	-75.60616	2.096346
91.27095	3288.197	22.09998	-75.69844	2.040517
91.32491	3283.937	22.13293	-75.78472	1.986539
91.37885	3279.663	22.17064	-75.86496	1.934414
91.43281	3275.381	22.21002	-75.93908	1.884129
91.48676	3271.097	22.24497	-76.00706	1.835563
91.54071	3266.814	22.26792	-76.06891	1.788624
91.59466	3262.534	22.27544	-76.12466	1.743123
91.64861	3258.253	22.26713	-76.17442	1.698941
91.70256	3253.972	22.24728	-76.21828	1.655872
91.75652	3249.691	22.22287	-76.25636	1.613819
91.81047	3245.414	22.19998	-76.28882	1.57261
91.86442	3241.136	22.18053	-76.31583	1.532173
91.91837	3236.86	22.16387	-76.3376	1.492389
91.97232	3232.584	22.14317	-76.35426	1.453188
92.02628	3228.305	22.11217	-76.36594	1.414448
92.08022	3224.02	22.06816	-76.37278	1.376079
92.13418	3219.733	22.01219	-76.37484	1.337984
92.18813	3215.452	21.94757	-76.37223	1.300057
92.24208	3211.189	21.87498	-76.36507	1.262242
92.29603	3206.954	21.79279	-76.35349	1.224452
92.34998	3202.755	21.69954	-76.33762	1.18666
92.40394	3198.6	21.59237	-76.31758	1.14885
92.45789	3194.49	21.47139	-76.26944	1.092684
92.51184	3190.423	21.33796	-76.22471	1.036076
92.56579	3186.393	21.19894	-76.18251	0.9797145
92.61974	3182.387	21.06009	-76.14195	0.9240575
92.67369	3178.394	20.92462	-76.10227	0.8693231
92.72765	3174.401	20.78819	-76.06293	0.8155558
92.78159	3170.396	20.6452	-76.02355	0.7626926
92.83555	3166.375	20.49005	-75.98389	0.7106064
92.8895	3162.342	20.31807	-75.94379	0.6591693
92.94345	3158.307	20.13085	-75.90315	0.6082139
92.99741	3154.276	19.93863	-75.86194	0.5576204
93.05135	3150.247	19.7513	-75.82014	0.5072426
93.10531	3146.22	19.57742	-75.77775	0.4569641
93.15926	3142.197	19.4182	-75.73479	0.4066764
93.21321	3138.182	19.2785	-75.69129	0.3562753
93.26716	3134.173	19.16043	-75.64729	0.3056823
93.32111	3130.172	19.06312	-75.60281	0.2548115
93.37506	3126.181	18.98614	-75.5579	0.2036047
93.42902	3122.197	18.93153	-75.51261	0.1520159
93.48297	3118.209	18.89872	-75.46698	0.1000493
93.53692	3114.214	18.88827	-75.42105	0.04799931
93.59087	3110.21	18.89442	-75.37488	0.01253607
93.64482	3106.198	18.91125	-75.3285	0.06125516
93.69878	3102.181	18.93857	-75.28197	0.115275
93.75272	3098.17	18.97841	-75.23532	0.170213
93.80668	3094.164	19.03051	-75.18862	0.2258876
93.86063	3090.166	19.09541	-75.14191	0.2822487
93.91458	3086.179	19.17426	-75.09524	0.3392962
93.96853	3082.207	19.26982	-75.04865	0.3970112
94.02248	3078.252	19.38038	-75.0022	0.4554036
94.07644	3074.294	19.54076	-74.95592	0.5144528
94.13039	3070.267	19.68384	-74.90987	0.574163
94.18434	3066.196	19.82063	-74.8641	0.634517
94.23829	3062.1	19.95768	-74.81861	0.69551
94.29224	3057.991	20.09743	-74.77347	0.7571291
94.34619	3053.873	20.24076	-74.72868	0.8193522
94.40015	3049.75	20.3879	-74.6843	0.8821679
94.45409	3045.625	20.53846	-74.64033	0.9455594
94.50805	3041.498	20.69123	-74.59679	1.009507
94.562	3037.37	20.84592	-74.55372	1.073995
94.61595	3033.242	21.00145	-74.51112	1.138997
94.66991	3029.112	21.157	-74.46899	1.204502
94.72385	3024.98	21.31134	-74.42738	1.270489
94.77781	3020.846	21.46404	-74.38625	1.336932
94.83176	3016.708	21.61478	-74.34563	1.403809
94.88571	3012.565	21.76325	-74.30553	1.471112
94.93966	3008.417	21.90898	-74.26592	1.53881
94.99361	3004.26	22.05171	-74.22681	1.606889
