T[Â°C]	350nm [counts / mm]	S.D.	First derivative	S.D. of first derivative
20.00084	2998.29	13.82061	-42.55458	1.002691
20.05479	2995.859	13.92455	-42.52361	0.9549774
20.10874	2993.429	14.03318	-42.49304	0.9084182
20.16269	2991.002	14.14664	-42.46289	0.8630651
20.21665	2988.576	14.26456	-42.43318	0.8189592
20.2706	2986.153	14.38717	-42.40391	0.7761522
20.32455	2983.732	14.51335	-42.37509	0.7346866
20.3785	2981.312	14.64278	-42.34674	0.6946071
20.43245	2978.894	14.7754	-42.31885	0.6559614
20.4864	2976.477	14.91042	-42.29143	0.6187962
20.54036	2974.062	15.0482	-42.26449	0.5831547
20.59431	2971.648	15.18901	-42.23803	0.5490853
20.64826	2969.234	15.33295	-42.21204	0.5166302
20.70221	2966.82	15.48079	-42.18653	0.4858365
20.75616	2964.406	15.63345	-42.16149	0.4567487
20.81011	2961.992	15.7923	-42.13692	0.4294125
20.86407	2959.579	15.96049	-42.1128	0.403872
20.91802	2957.171	16.14511	-42.08913	0.3801711
20.97197	2954.774	16.3629	-42.0659	0.3583505
21.02592	2952.468	16.57615	-42.04307	0.3384492
21.07987	2950.192	16.74618	-42.02063	0.3204998
21.13382	2947.943	16.86473	-41.99857	0.3045319
21.18777	2945.72	16.92803	-41.97684	0.2905631
21.24173	2943.523	16.93661	-41.95544	0.2786087
21.29568	2941.347	16.8974	-41.93432	0.2686666
21.34963	2939.186	16.82134	-41.91346	0.2607288
21.40358	2937.028	16.72198	-41.89283	0.2547772
21.45753	2934.864	16.61007	-41.8724	0.2507796
21.51148	2932.689	16.49128	-41.85213	0.248702
21.56544	2930.501	16.36693	-41.832	0.2485001
21.61939	2928.305	16.23585	-41.81195	0.2501325
21.67334	2926.109	16.09814	-41.79197	0.2535581
21.72729	2923.924	15.95025	-41.772	0.2587388
21.78124	2921.753	15.78637	-41.75202	0.2656504
21.8352	2919.594	15.60471	-41.73198	0.2742736
21.88915	2917.442	15.40638	-41.71184	0.2846093
21.9431	2915.292	15.1965	-41.69156	0.2966689
21.99705	2913.137	14.98192	-41.67109	0.3104723
22.051	2910.972	14.76847	-41.65039	0.3260549
22.10495	2908.795	14.56164	-41.62942	0.3434446
22.15891	2906.6	14.36824	-41.60815	0.3626561
22.21286	2904.386	14.19559	-41.58656	0.3836704
22.26681	2902.153	14.04961	-41.56467	0.4064017
22.32076	2899.907	13.93161	-41.54256	0.430631
22.37471	2897.657	13.83953	-41.5204	0.455929
22.42866	2895.408	13.77433	-41.49852	0.4815312
22.48261	2893.165	13.73343	-41.47744	0.5061974
22.53657	2890.934	13.7071	-41.45791	0.5281461
22.59052	2888.717	13.67986	-41.44081	0.5452616
22.64447	2886.511	13.63675	-41.43108	0.5353781
22.69842	2884.31	13.56802	-41.42164	0.5241456
22.75237	2882.106	13.47324	-41.41254	0.5114008
22.80632	2879.891	13.36171	-41.40379	0.4969886
22.86028	2877.667	13.25056	-41.39541	0.4807621
22.91423	2875.433	13.1566	-41.38744	0.4626248
22.96818	2873.196	13.08797	-41.3799	0.4425346
23.02213	2870.954	13.04729	-41.37283	0.4205135
23.07608	2868.704	13.03477	-41.36623	0.3966811
23.13003	2866.447	13.05095	-41.36006	0.3712502
23.18399	2864.183	13.09596	-41.35427	0.3445595
23.23794	2861.915	13.16907	-41.3488	0.3170898
23.29189	2859.644	13.26474	-41.34357	0.2894897
23.34584	2857.372	13.37652	-41.33854	0.2626237
23.39979	2855.099	13.49951	-41.33363	0.2376034
23.45374	2852.823	13.62842	-41.3288	0.2157995
23.5077	2850.539	13.75869	-41.32399	0.1987584
23.56165	2848.239	13.88551	-41.31915	0.1879157
23.6156	2845.918	14.00872	-41.3142	0.1841153
23.66955	2843.588	14.13032	-41.30906	0.187166
23.7235	2841.255	14.25111	-41.30366	0.1958529
23.77745	2838.927	14.36975	-41.29791	0.2083918
23.83141	2836.604	14.48372	-41.29173	0.2229716
23.88536	2834.288	14.59406	-41.28503	0.2380353
23.93931	2831.981	14.70736	-41.27769	0.2523775
23.99326	2829.687	14.8288	-41.26965	0.2651093
24.04721	2827.411	14.95871	-41.26079	0.2755964
24.10116	2825.154	15.0911	-41.25108	0.2834137
24.15512	2822.92	15.21924	-41.24044	0.2882812
24.20907	2820.707	15.33448	-41.22883	0.2900296
24.26302	2818.513	15.42455	-41.21618	0.2885805
24.31697	2816.334	15.47814	-41.20242	0.2839359
24.37092	2814.164	15.48801	-41.18748	0.2761947
24.42487	2811.995	15.45782	-41.17132	0.2655478
24.47882	2809.825	15.39962	-41.15392	0.2523081
24.53278	2807.655	15.32516	-41.13529	0.2369452
24.58673	2805.487	15.24639	-41.11547	0.2201068
24.64068	2803.319	15.17216	-41.0945	0.2026663
24.69463	2801.153	15.1092	-41.07243	0.1857667
24.74858	2798.988	15.0628	-41.04932	0.170843
24.80253	2796.828	15.03704	-41.02524	0.1595815
24.85649	2794.677	15.03646	-41.00029	0.1536265
24.91044	2792.533	15.06077	-40.97456	0.1540376
24.96439	2790.389	15.10515	-40.94818	0.1607971
25.01834	2788.237	15.16074	-40.92126	0.1728321
25.07229	2786.073	15.21914	-40.89394	0.188537
25.12625	2783.897	15.27126	-40.86635	0.2063059
25.1802	2781.708	15.31119	-40.83864	0.2248178
25.23415	2779.514	15.33678	-40.81098	0.2430912
25.2881	2777.318	15.34697	-40.78354	0.2604442
25.34205	2775.122	15.34089	-40.75655	0.276428
25.396	2772.927	15.32186	-40.73025	0.290788
25.44995	2770.732	15.29361	-40.70489	0.3034129
25.50391	2768.529	15.25845	-40.68072	0.3142794
25.55786	2766.312	15.22089	-40.65799	0.3234295
25.61181	2764.083	15.1834	-40.63691	0.3309264
25.66576	2761.854	15.14547	-40.61764	0.3368446
25.71971	2759.634	15.1002	-40.60034	0.3412429
25.77366	2757.428	15.03961	-40.58512	0.3441628
25.82762	2755.234	14.95763	-40.57207	0.3456026
25.88157	2753.044	14.85638	-40.56121	0.3455348
25.93552	2750.848	14.74108	-40.55254	0.3439061
25.98947	2748.641	14.61123	-40.54601	0.3406673
26.04342	2746.422	14.46324	-40.54151	0.3358008
26.09737	2744.194	14.29856	-40.53893	0.3293266
26.15133	2741.964	14.12514	-40.53809	0.3213094
26.20528	2739.739	13.9526	-40.53883	0.3118599
26.25923	2737.526	13.79025	-40.54094	0.3011485
26.31318	2735.329	13.64401	-40.54421	0.2894106
26.36713	2733.148	13.51454	-40.5484	0.2769296
26.42108	2730.981	13.40092	-40.55325	0.264009
26.47503	2728.825	13.30345	-40.55848	0.2509549
26.52899	2726.678	13.22278	-40.56383	0.2380402
26.58294	2724.536	13.16089	-40.56902	0.2255059
26.63689	2722.389	13.1195	-40.57375	0.2135278
26.69084	2720.23	13.09865	-40.57776	0.2022206
26.74479	2718.056	13.09693	-40.58081	0.1916453
26.79875	2715.868	13.11103	-40.58265	0.1818449
26.8527	2713.671	13.13779	-40.58309	0.172886
26.90665	2711.471	13.17737	-40.58193	0.1649128
26.9606	2709.274	13.23491	-40.57902	0.1581784
27.01455	2707.081	13.31922	-40.57421	0.1530287
27.0685	2704.895	13.43754	-40.56742	0.1498995
27.12246	2702.715	13.59112	-40.55857	0.1492123
27.17641	2700.546	13.77719	-40.54766	0.1512666
27.23036	2698.394	13.9884	-40.53472	0.1561252
27.28431	2696.261	14.21182	-40.51981	0.1635869
27.33826	2694.146	14.43608	-40.50304	0.1732163
27.39221	2692.046	14.65156	-40.48457	0.1844487
27.44617	2689.95	14.85255	-40.46457	0.19669
27.50012	2687.85	15.04235	-40.44321	0.2093979
27.55407	2685.733	15.22623	-40.42071	0.2221236
27.60802	2683.588	15.40482	-40.39729	0.2345134
27.66197	2681.409	15.57755	-40.37316	0.2463155
27.71592	2679.196	15.74252	-40.34858	0.2573656
27.76987	2676.954	15.8954	-40.32375	0.267572
27.82383	2674.69	16.03369	-40.29889	0.2769158
27.87778	2672.412	16.15916	-40.27417	0.2854171
27.93173	2670.132	16.26927	-40.24976	0.2931317
27.98568	2667.856	16.35429	-40.22575	0.3001238
28.03963	2665.586	16.4056	-40.20221	0.3064532
28.09358	2663.324	16.41948	-40.17919	0.3121737
28.14754	2661.072	16.39712	-40.1567	0.3173171
28.20149	2658.827	16.34625	-40.13477	0.3219015
28.25544	2656.589	16.2784	-40.11339	0.3259095
28.30939	2654.359	16.20147	-40.09257	0.3293057
28.36334	2652.132	16.11658	-40.07224	0.3320203
28.41729	2649.908	16.02384	-40.05235	0.3339721
28.47125	2647.682	15.92117	-40.0328	0.335069
28.5252	2645.452	15.8107	-40.01353	0.3352098
28.57915	2643.221	15.69935	-39.99448	0.3343082
28.6331	2640.995	15.59231	-39.97564	0.3322989
28.68705	2638.781	15.49412	-39.957	0.3291502
28.741	2636.586	15.40435	-39.93862	0.3248543
28.79496	2634.418	15.31594	-39.92057	0.3194391
28.84891	2632.278	15.21595	-39.9029	0.3129616
28.90286	2630.166	15.09093	-39.88567	0.3055188
28.95681	2628.083	14.93158	-39.86889	0.2972213
29.01076	2626.028	14.73594	-39.85255	0.288229
29.06471	2624	14.51122	-39.83665	0.2787455
29.11867	2621.99	14.27228	-39.8212	0.2690145
29.17262	2619.991	14.03576	-39.80619	0.2592949
29.22657	2617.991	13.81419	-39.79161	0.2498417
29.28052	2615.977	13.6157	-39.77747	0.240864
29.33447	2613.941	13.44247	-39.76375	0.2325194
29.38842	2611.876	13.29446	-39.75045	0.2248823
29.44238	2609.784	13.1755	-39.73756	0.2179316
29.49633	2607.672	13.08798	-39.72507	0.2115739
29.55028	2605.549	13.02929	-39.713	0.2056502
29.60423	2603.418	12.99403	-39.70142	0.1999651
29.65818	2601.286	12.97711	-39.69038	0.194311
29.71213	2599.153	12.97133	-39.68001	0.1884867
29.76608	2597.021	12.96777	-39.67041	0.1823286
29.82004	2594.89	12.96551	-39.66169	0.1757354
29.87399	2592.764	12.96776	-39.65394	0.1686709
29.92794	2590.642	12.97567	-39.64726	0.1611823
29.98189	2588.519	12.98898	-39.64169	0.1533907
30.03584	2586.389	13.01064	-39.63725	0.1454769
30.0898	2584.247	13.04545	-39.63394	0.1376723
30.14375	2582.092	13.09962	-39.63173	0.1302192
30.1977	2579.927	13.18364	-39.63056	0.1233602
30.25165	2577.756	13.3069	-39.63035	0.1173605
30.3056	2575.588	13.47285	-39.63098	0.1124786
30.35955	2573.43	13.68089	-39.63232	0.1089738
30.41351	2571.286	13.91971	-39.63422	0.1070849
30.46746	2569.156	14.17178	-39.63655	0.1069826
30.52141	2567.035	14.41986	-39.63916	0.1087451
30.57536	2564.926	14.64914	-39.64196	0.1123555
30.62931	2562.829	14.84884	-39.64486	0.1177091
30.68326	2560.745	15.01401	-39.6478	0.1246321
30.73722	2558.671	15.14845	-39.65076	0.1329006
30.79117	2556.599	15.25799	-39.65371	0.1422773
30.84512	2554.52	15.34762	-39.65667	0.1525294
30.89907	2552.424	15.42085	-39.6596	0.1634426
30.95302	2550.306	15.47928	-39.66248	0.1748554
31.00697	2548.162	15.5238	-39.66525	0.186671
31.06092	2545.995	15.5553	-39.66788	0.1988634
31.11488	2543.808	15.57761	-39.67028	0.2114727
31.16883	2541.605	15.59591	-39.67241	0.224587
31.22278	2539.392	15.61072	-39.67418	0.238316
31.27673	2537.167	15.61749	-39.6755	0.2527737
31.33068	2534.933	15.60945	-39.67624	0.2680576
31.38463	2532.691	15.57977	-39.67629	0.2842221
31.43859	2530.446	15.52645	-39.6755	0.3012671
31.49254	2528.208	15.45208	-39.67375	0.3191162
31.54649	2525.983	15.36251	-39.67092	0.3376366
31.60044	2523.771	15.26359	-39.66691	0.3566415
31.65439	2521.565	15.15964	-39.66165	0.3759152
31.70834	2519.36	15.05265	-39.65506	0.3952159
31.7623	2517.154	14.94501	-39.64709	0.4142816
31.81625	2514.948	14.84094	-39.6377	0.4328639
31.8702	2512.745	14.74641	-39.62689	0.4507308
31.92415	2510.552	14.66337	-39.61467	0.467683
31.9781	2508.375	14.59157	-39.60107	0.4835703
32.03205	2506.217	14.52731	-39.58615	0.4982876
32.08601	2504.081	14.46335	-39.56995	0.5117637
32.13996	2501.967	14.38711	-39.55248	0.5239422
32.19391	2499.872	14.28786	-39.53377	0.534775
32.24786	2497.798	14.15986	-39.51382	0.5442089
32.30181	2495.742	14.0048	-39.49266	0.5521873
32.35576	2493.701	13.83022	-39.47033	0.5586429
32.40971	2491.667	13.64421	-39.44685	0.5634995
32.46367	2489.631	13.4558	-39.42228	0.5666617
32.51762	2487.588	13.27426	-39.39667	0.5680252
32.57157	2485.537	13.10505	-39.37009	0.5674891
32.62552	2483.478	12.94927	-39.34259	0.5649677
32.67947	2481.413	12.81024	-39.31425	0.5603877
32.73343	2479.339	12.69436	-39.28511	0.5536966
32.78738	2477.251	12.60333	-39.25528	0.5448622
32.84133	2475.149	12.53472	-39.22483	0.5338666
32.89528	2473.031	12.48445	-39.19387	0.5207195
32.94923	2470.899	12.44745	-39.16251	0.5054495
33.00319	2468.752	12.41693	-39.13086	0.4881337
33.05714	2466.592	12.38863	-39.09906	0.4688892
33.11109	2464.425	12.36255	-39.06721	0.4478855
33.16504	2462.258	12.33853	-39.03545	0.4253299
33.21899	2460.097	12.31576	-39.0039	0.4014626
33.27294	2457.944	12.29732	-38.97267	0.3765316
33.32689	2455.793	12.28558	-38.94187	0.3507935
33.38084	2453.639	12.2836	-38.91157	0.3244853
33.4348	2451.484	12.2967	-38.88183	0.2978145
33.48875	2449.334	12.33288	-38.85271	0.270958
33.5427	2447.198	12.39943	-38.82423	0.2440501
33.59665	2445.078	12.50168	-38.7964	0.2172154
33.6506	2442.981	12.64183	-38.76921	0.1905685
33.70456	2440.906	12.81613	-38.74261	0.1642308
33.75851	2438.85	13.01321	-38.71653	0.1383744
33.81246	2436.805	13.22048	-38.69091	0.1132811
33.86641	2434.766	13.42175	-38.66566	0.08950566
33.92036	2432.729	13.60114	-38.6407	0.06827895
33.97431	2430.693	13.74688	-38.61596	0.05241618
34.02826	2428.659	13.85621	-38.59138	0.04697845
34.08222	2426.625	13.93195	-38.56691	0.05426006
34.13617	2424.588	13.97661	-38.54247	0.06942822
34.19012	2422.543	13.99326	-38.51804	0.08749051
34.24407	2420.491	13.98726	-38.49358	0.1059674
34.29802	2418.433	13.96488	-38.46914	0.1237196
34.35197	2416.372	13.93409	-38.44472	0.1401583
34.40593	2414.307	13.90184	-38.42038	0.1549771
34.45988	2412.24	13.87553	-38.39613	0.1680344
34.51383	2410.169	13.85853	-38.37202	0.1793298
34.56778	2408.094	13.84508	-38.34807	0.1890061
34.62173	2406.017	13.82558	-38.32429	0.1973399
34.67569	2403.938	13.79505	-38.30071	0.2047357
34.72964	2401.855	13.7509	-38.27736	0.21169
34.78359	2399.768	13.6939	-38.25425	0.2187396
34.83754	2397.676	13.62783	-38.2314	0.2264038
34.89149	2395.581	13.55694	-38.20881	0.235105
34.94544	2393.485	13.48378	-38.1865	0.2451316
34.99939	2391.385	13.41075	-38.16449	0.2566046
35.05334	2389.279	13.34214	-38.14283	0.2694972
35.1073	2387.168	13.28279	-38.12154	0.2836334
35.16125	2385.054	13.23659	-38.10066	0.2987563
35.2152	2382.948	13.2093	-38.0802	0.3145663
35.26915	2380.858	13.20838	-38.06018	0.3307495
35.3231	2378.79	13.23756	-38.04059	0.347009
35.37706	2376.745	13.29685	-38.02144	0.3630695
35.43101	2374.722	13.3795	-38.00271	0.3786856
35.48496	2372.716	13.47571	-37.98438	0.3936491
35.53891	2370.721	13.57354	-37.96644	0.4077696
35.59286	2368.732	13.66397	-37.94886	0.4208893
35.64681	2366.745	13.73717	-37.93164	0.4328654
35.70076	2364.76	13.7848	-37.91475	0.4435847
35.75472	2362.773	13.80431	-37.89817	0.4529578
35.80867	2360.78	13.79523	-37.88189	0.4609357
35.86262	2358.778	13.75709	-37.86584	0.4675109
35.91657	2356.764	13.68946	-37.85	0.4727228
35.97052	2354.74	13.59468	-37.83436	0.4766492
36.02448	2352.71	13.48207	-37.81892	0.479412
36.07843	2350.676	13.35867	-37.80367	0.4811808
36.13238	2348.641	13.22888	-37.78866	0.4821606
36.18633	2346.605	13.09439	-37.77391	0.4825844
36.24028	2344.57	12.95401	-37.75945	0.4826891
36.29424	2342.539	12.80518	-37.74534	0.4827117
36.34819	2340.511	12.64521	-37.73164	0.4828861
36.40214	2338.486	12.47527	-37.71841	0.4834405
36.45609	2336.457	12.3014	-37.70573	0.484569
36.51004	2334.422	12.1333	-37.69366	0.4864316
36.56399	2332.379	11.97791	-37.6823	0.4891466
36.61794	2330.33	11.83813	-37.67171	0.4927666
36.67189	2328.275	11.71554	-37.66198	0.4972941
36.72585	2326.214	11.60889	-37.65318	0.5026548
36.7798	2324.144	11.52006	-37.64536	0.50874
36.83375	2322.066	11.45517	-37.63855	0.515388
36.8877	2319.984	11.42083	-37.63278	0.5224131
36.94165	2317.907	11.41791	-37.62807	0.5296012
36.99561	2315.841	11.44517	-37.62443	0.5367049
37.04956	2313.796	11.5006	-37.62186	0.5434564
37.10351	2311.775	11.57893	-37.62035	0.5495716
37.15746	2309.771	11.67282	-37.61986	0.5547765
37.21141	2307.777	11.77539	-37.62033	0.5588376
37.26536	2305.789	11.88043	-37.62165	0.5615543
37.31931	2303.802	11.98526	-37.62371	0.5627869
37.37326	2301.817	12.08879	-37.62638	0.5624364
37.42722	2299.828	12.1917	-37.62954	0.5604575
37.48117	2297.833	12.29202	-37.63307	0.5568489
37.53512	2295.825	12.39033	-37.63686	0.5516425
37.58907	2293.802	12.48617	-37.64082	0.5449224
37.64302	2291.769	12.57625	-37.64483	0.5367982
37.69698	2289.731	12.65575	-37.64879	0.5274125
37.75093	2287.695	12.71741	-37.65259	0.5169243
37.80488	2285.667	12.75379	-37.65615	0.5054979
37.85883	2283.649	12.76089	-37.65937	0.4933051
37.91278	2281.642	12.73743	-37.66216	0.4805026
37.96674	2279.644	12.68581	-37.66443	0.4672298
38.02069	2277.653	12.60932	-37.66612	0.4535856
38.07464	2275.662	12.51497	-37.66717	0.4396457
38.12859	2273.667	12.41066	-37.66755	0.4254668
38.18254	2271.665	12.30521	-37.66719	0.4110814
38.23649	2269.652	12.20655	-37.66607	0.3965074
38.29044	2267.628	12.1193	-37.66412	0.3817652
38.34439	2265.591	12.04448	-37.6613	0.366868
38.39835	2263.539	11.97822	-37.65759	0.3518462
38.4523	2261.473	11.91769	-37.65294	0.3367298
38.50625	2259.399	11.86147	-37.64735	0.3215845
38.5602	2257.322	11.80739	-37.64081	0.3064879
38.61415	2255.248	11.75322	-37.6333	0.291527
38.66811	2253.182	11.69402	-37.62481	0.2767653
38.72206	2251.128	11.62532	-37.61529	0.2622546
38.77601	2249.088	11.54699	-37.60472	0.2480119
38.82996	2247.059	11.46295	-37.59307	0.2340177
38.88391	2245.033	11.37427	-37.5803	0.2202236
38.93786	2243.004	11.2798	-37.56639	0.2065666
38.99181	2240.967	11.18007	-37.55131	0.1929622
39.04576	2238.924	11.07964	-37.535	0.1793152
39.09972	2236.876	10.98471	-37.51745	0.1655408
39.15367	2234.821	10.90389	-37.49863	0.1515804
39.20762	2232.756	10.84296	-37.4785	0.1374194
39.26157	2230.682	10.80552	-37.45704	0.1231183
39.31553	2228.608	10.79231	-37.4342	0.1088377
39.36948	2226.542	10.80064	-37.40996	0.09489076
39.42343	2224.489	10.82672	-37.38432	0.081833
39.47738	2222.448	10.86378	-37.35729	0.0705995
39.53133	2220.42	10.90686	-37.3289	0.06264159
39.58528	2218.401	10.95607	-37.29919	0.0596868
39.63924	2216.388	11.01353	-37.26818	0.0627301
39.69319	2214.378	11.07726	-37.23594	0.07113176
39.74714	2212.367	11.14146	-37.20249	0.08329286
39.80109	2210.352	11.20308	-37.16793	0.09773267
39.85504	2208.334	11.26262	-37.13235	0.1134297
39.90899	2206.311	11.32152	-37.09584	0.129733
39.96294	2204.278	11.3806	-37.05853	0.1462406
40.0169	2202.233	11.44243	-37.0205	0.1627212
40.07085	2200.176	11.51104	-36.98188	0.1790581
40.1248	2198.109	11.58861	-36.94278	0.1952277
40.17875	2196.041	11.67484	-36.90334	0.2112753
40.2327	2193.981	11.76839	-36.86369	0.227295
40.28666	2191.939	11.86878	-36.824	0.2434056
40.34061	2189.919	11.9766	-36.78443	0.2597263
40.39456	2187.922	12.08891	-36.74516	0.2763652
40.44851	2185.95	12.19897	-36.70636	0.293397
40.50246	2184.002	12.29967	-36.66821	0.3108554
40.55641	2182.073	12.38712	-36.63089	0.3287197
40.61036	2180.153	12.45963	-36.59454	0.3469183
40.66431	2178.234	12.51471	-36.5593	0.3653443
40.71827	2176.312	12.55258	-36.52528	0.3838479
40.77222	2174.384	12.57743	-36.49261	0.4022596
40.82617	2172.448	12.59378	-36.46136	0.4203998
40.88012	2170.503	12.60574	-36.43157	0.4380887
40.93407	2168.549	12.61472	-36.40326	0.4551517
40.98803	2166.59	12.62147	-36.37642	0.47145
41.04198	2164.631	12.62429	-36.35099	0.4868665
41.09593	2162.679	12.62152	-36.32693	0.5013151
41.14988	2160.737	12.61323	-36.3042	0.5147389
41.20383	2158.809	12.60043	-36.28274	0.5270893
41.25779	2156.896	12.58518	-36.26253	0.5383409
41.31174	2155	12.5686	-36.24354	0.5484705
41.36569	2153.118	12.55133	-36.22575	0.557449
41.41964	2151.246	12.53078	-36.20913	0.5652218
41.47359	2149.377	12.50185	-36.19366	0.5717175
41.52754	2147.505	12.45842	-36.17932	0.5768328
41.58149	2145.624	12.40036	-36.16607	0.5804657
41.63544	2143.728	12.32994	-36.15391	0.5824984
41.6894	2141.813	12.24835	-36.14281	0.5828232
41.74335	2139.873	12.15879	-36.13278	0.5813698
41.7973	2137.917	12.06707	-36.12383	0.5780938
41.85125	2135.955	11.97659	-36.11598	0.5730093
41.9052	2133.999	11.89159	-36.10926	0.5661934
41.95916	2132.057	11.81593	-36.10366	0.5577889
42.01311	2130.134	11.75068	-36.09918	0.548012
42.06706	2128.231	11.69501	-36.09581	0.5371488
42.12101	2126.345	11.64345	-36.09352	0.5255407
42.17496	2124.469	11.58841	-36.0923	0.5135739
42.22891	2122.595	11.52092	-36.0921	0.5016246
42.28286	2120.717	11.43641	-36.09287	0.4900648
42.33681	2118.826	11.33837	-36.09452	0.4792295
42.39077	2116.917	11.23113	-36.09699	0.4693919
42.44472	2114.987	11.11483	-36.10016	0.4607372
42.49867	2113.033	10.99238	-36.10394	0.4533371
42.55262	2111.058	10.8714	-36.10821	0.4471509
42.60658	2109.063	10.75963	-36.11287	0.4420338
42.66053	2107.053	10.6627	-36.11781	0.4377694
42.71448	2105.034	10.58456	-36.12296	0.434078
42.76843	2103.014	10.52582	-36.1282	0.4306691
42.82238	2101.001	10.48497	-36.13346	0.4272557
42.87633	2098.997	10.4599	-36.13863	0.4235748
42.93029	2097	10.44692	-36.14359	0.4193976
42.98424	2095.008	10.44261	-36.14819	0.4145297
43.03819	2093.014	10.44286	-36.1523	0.4088397
43.09214	2091.016	10.44373	-36.15572	0.4022405
43.14609	2089.012	10.43925	-36.15829	0.3946858
43.20004	2087.002	10.42427	-36.15983	0.3861472
43.25399	2084.986	10.39977	-36.16021	0.3765993
43.30795	2082.965	10.37073	-36.15929	0.3660106
43.3619	2080.943	10.3462	-36.15693	0.3543354
43.41585	2078.926	10.33867	-36.15302	0.3415138
43.4698	2076.923	10.35911	-36.14745	0.3274768
43.52375	2074.94	10.41366	-36.14015	0.3121479
43.57771	2072.985	10.50218	-36.13109	0.2954561
43.63166	2071.063	10.6159	-36.12026	0.2773454
43.68561	2069.168	10.74335	-36.10773	0.2577785
43.73956	2067.289	10.87199	-36.09359	0.2367549
43.79351	2065.413	10.99039	-36.07795	0.2143219
43.84746	2063.529	11.08856	-36.06098	0.19057
43.90141	2061.629	11.1614	-36.04284	0.1656624
43.95536	2059.71	11.207	-36.02373	0.1398265
44.00932	2057.771	11.22736	-36.00385	0.1133666
44.06327	2055.819	11.22891	-35.98342	0.08671053
44.11722	2053.859	11.22159	-35.96267	0.0605644
44.17117	2051.897	11.21411	-35.94181	0.03679544
44.22512	2049.937	11.21148	-35.92103	0.0237425
44.27908	2047.977	11.21468	-35.9005	0.03494561
44.33303	2046.017	11.2235	-35.88038	0.05649566
44.38698	2044.056	11.23598	-35.86081	0.07932577
44.44093	2042.095	11.24691	-35.8419	0.1015227
44.49488	2040.134	11.25158	-35.82376	0.1224845
44.54883	2038.174	11.24726	-35.80646	0.1419471
44.60279	2036.211	11.23036	-35.79007	0.1598114
44.65674	2034.241	11.20078	-35.77464	0.1760601
44.71069	2032.264	11.16083	-35.76018	0.1907483
44.76464	2030.284	11.11362	-35.7467	0.2039755
44.81859	2028.308	11.06034	-35.7342	0.2158609
44.87254	2026.344	10.99977	-35.72267	0.2265198
44.92649	2024.394	10.93224	-35.7121	0.2360664
44.98045	2022.46	10.86174	-35.70246	0.2446072
45.0344	2020.542	10.79572	-35.69371	0.2522344
45.08835	2018.642	10.7443	-35.68579	0.2590084
45.1423	2016.763	10.71765	-35.67861	0.2649744
45.19625	2014.905	10.71986	-35.67205	0.2701578
45.25021	2013.068	10.7463	-35.66598	0.2745815
45.30416	2011.245	10.78614	-35.66022	0.2782714
45.35811	2009.431	10.82623	-35.65459	0.281251
45.41206	2007.62	10.85685	-35.64885	0.2835485
45.46601	2005.801	10.87241	-35.6428	0.285196
45.51996	2003.971	10.87054	-35.63619	0.2862409
45.57391	2002.131	10.85362	-35.62883	0.2867478
45.62786	2000.285	10.82603	-35.62054	0.28681
45.68182	1998.436	10.7934	-35.61119	0.2865387
45.73577	1996.582	10.76458	-35.6007	0.2860775
45.78972	1994.719	10.74923	-35.58901	0.2855663
45.84367	1992.846	10.75487	-35.5761	0.2851392
45.89762	1990.959	10.78487	-35.56201	0.2849133
45.95158	1989.057	10.83707	-35.54679	0.2849649
46.00553	1987.14	10.90579	-35.53056	0.2853298
46.05948	1985.21	10.98427	-35.51345	0.2860021
46.11343	1983.268	11.06591	-35.49562	0.286939
46.16738	1981.317	11.1444	-35.4772	0.2880533
46.22133	1979.357	11.21446	-35.45832	0.2892361
46.27529	1977.387	11.27358	-35.43911	0.2903384
46.32924	1975.41	11.32039	-35.41969	0.2911959
46.38319	1973.429	11.35169	-35.4002	0.2916285
46.43714	1971.447	11.36594	-35.38077	0.2914572
46.49109	1969.468	11.36237	-35.36153	0.2905438
46.54504	1967.492	11.34215	-35.34263	0.2888154
46.599	1965.515	11.31047	-35.32418	0.2862746
46.65295	1963.534	11.27664	-35.30629	0.2830259
46.7069	1961.549	11.25127	-35.28899	0.2792765
46.76085	1959.564	11.24431	-35.27232	0.2753349
46.8148	1957.584	11.26082	-35.25627	0.2716059
46.86876	1955.611	11.3007	-35.24081	0.26856
46.92271	1953.649	11.35949	-35.22592	0.2667122
46.97666	1951.696	11.42852	-35.21157	0.2665668
47.03061	1949.75	11.49653	-35.19773	0.2685525
47.08456	1947.808	11.55631	-35.1844	0.2729579
47.13851	1945.867	11.60359	-35.17152	0.2798959
47.19246	1943.928	11.63549	-35.15903	0.289284
47.24641	1941.993	11.65089	-35.1469	0.3008776
47.30037	1940.066	11.65285	-35.13506	0.3143321
47.35432	1938.151	11.6477	-35.12343	0.3292502
47.40827	1936.245	11.64193	-35.11194	0.345232
47.46222	1934.346	11.63838	-35.10049	0.3619224
47.51617	1932.451	11.64057	-35.08897	0.3790192
47.57013	1930.561	11.65082	-35.07727	0.396278
47.62408	1928.68	11.6681	-35.06528	0.4135043
47.67803	1926.811	11.68848	-35.05291	0.4305289
47.73198	1924.956	11.7083	-35.04009	0.4472001
47.78593	1923.118	11.72337	-35.02674	0.4633821
47.83988	1921.296	11.73116	-35.01283	0.478946
47.89384	1919.487	11.72792	-34.99833	0.4937771
47.94779	1917.688	11.70981	-34.98327	0.5077735
48.00174	1915.897	11.67325	-34.9677	0.5208468
48.05569	1914.112	11.61728	-34.95172	0.5329152
48.10964	1912.33	11.5417	-34.93544	0.5439133
48.16359	1910.547	11.44977	-34.91897	0.5537776
48.21754	1908.754	11.3487	-34.90245	0.5624644
48.2715	1906.947	11.24714	-34.88599	0.5699729
48.32545	1905.124	11.14828	-34.86969	0.576317
48.3794	1903.286	11.05349	-34.85369	0.5815413
48.43335	1901.439	10.96202	-34.83812	0.5856956
48.4873	1899.584	10.87142	-34.82314	0.5888363
48.54126	1897.724	10.77775	-34.80889	0.591027
48.59521	1895.859	10.67863	-34.79548	0.5923407
48.64916	1893.992	10.57429	-34.78302	0.5928662
48.70311	1892.125	10.46557	-34.77156	0.5926933
48.75706	1890.261	10.3527	-34.76112	0.5919149
48.81101	1888.398	10.23369	-34.75167	0.5906039
48.86496	1886.535	10.10583	-34.74319	0.5888096
48.91891	1884.67	9.970047	-34.73563	0.5865443
48.97287	1882.8	9.832804	-34.7289	0.5837941
49.02682	1880.922	9.701052	-34.72295	0.5805181
49.08077	1879.031	9.581557	-34.71765	0.5766628
49.13472	1877.125	9.478832	-34.7129	0.5721635
49.18867	1875.207	9.39395	-34.70856	0.5669418
49.24263	1873.28	9.327111	-34.70452	0.5609061
49.29658	1871.351	9.280337	-34.70065	0.5539625
49.35053	1869.429	9.254538	-34.69683	0.5460219
49.40448	1867.518	9.246506	-34.69296	0.5370066
49.45843	1865.622	9.251909	-34.68895	0.5268761
49.51238	1863.736	9.268929	-34.6847	0.5156294
49.56634	1861.857	9.295847	-34.68015	0.5033045
49.62029	1859.981	9.330061	-34.67523	0.4899925
49.67424	1858.104	9.369753	-34.66987	0.475801
49.72819	1856.223	9.415236	-34.66401	0.460875
49.78214	1854.336	9.468207	-34.65757	0.4453814
49.83609	1852.442	9.529228	-34.65044	0.4295183
49.89005	1850.541	9.59577	-34.64256	0.4135147
49.944	1848.632	9.662387	-34.6338	0.3976229
49.99795	1846.713	9.723227	-34.62409	0.3821193
50.0519	1844.789	9.77382	-34.61333	0.3673211
50.10585	1842.863	9.81158	-34.60149	0.3535825
50.15981	1840.939	9.839282	-34.58854	0.341296
50.21376	1839.02	9.862861	-34.5745	0.3308794
50.26771	1837.109	9.887223	-34.5594	0.322769
50.32166	1835.21	9.913877	-34.54331	0.317373
50.37561	1833.325	9.942416	-34.52633	0.315045
50.42956	1831.454	9.971038	-34.50861	0.3160273
50.48351	1829.596	9.995965	-34.49028	0.3204151
50.53746	1827.745	10.01085	-34.47151	0.3281351
50.59142	1825.893	10.01047	-34.45245	0.338957
50.64537	1824.035	9.990894	-34.43325	0.3525443
50.69932	1822.171	9.953536	-34.41401	0.3684703
50.75327	1820.303	9.901485	-34.39484	0.3862778
50.80722	1818.437	9.83789	-34.37585	0.4054927
50.86118	1816.576	9.765842	-34.3571	0.425651
50.91513	1814.723	9.691157	-34.3387	0.4463018
50.96908	1812.877	9.618926	-34.32069	0.4670239
51.02303	1811.036	9.556396	-34.30316	0.4874493
51.07698	1809.199	9.511164	-34.28613	0.5072711
51.13093	1807.365	9.488558	-34.26962	0.5262285
51.18488	1805.534	9.486609	-34.25366	0.5441138
51.23884	1803.708	9.50109	-34.23823	0.5607468
51.29279	1801.89	9.527689	-34.22333	0.5759638
51.34674	1800.079	9.562066	-34.20893	0.5896276
51.40069	1798.275	9.600158	-34.19497	0.601607
51.45464	1796.473	9.639928	-34.18144	0.6117845
51.50859	1794.671	9.678806	-34.16827	0.620057
51.56255	1792.866	9.713837	-34.15545	0.62633
51.6165	1791.059	9.739141	-34.14292	0.630531
51.67045	1789.251	9.750201	-34.13068	0.6326004
51.7244	1787.444	9.746212	-34.11872	0.6325108
51.77835	1785.639	9.73033	-34.107	0.6302681
51.83231	1783.841	9.705462	-34.09553	0.6259193
51.88626	1782.05	9.673988	-34.08429	0.619568
51.94021	1780.265	9.636405	-34.07324	0.6113482
51.99416	1778.485	9.591893	-34.06236	0.6014461
52.04811	1776.703	9.534574	-34.05158	0.5900854
52.10206	1774.913	9.4594	-34.04085	0.5775166
52.15601	1773.112	9.364321	-34.03011	0.564001
52.20996	1771.296	9.252921	-34.01933	0.549802
52.26392	1769.468	9.131188	-34.00849	0.5351717
52.31787	1767.633	9.003313	-33.9976	0.5203419
52.37182	1765.797	8.870481	-33.98668	0.5055024
52.42577	1763.964	8.734016	-33.97578	0.4908089
52.47972	1762.136	8.596951	-33.96494	0.4763773
52.53368	1760.314	8.463675	-33.95422	0.4622968
52.58763	1758.493	8.336914	-33.94369	0.4486393
52.64158	1756.667	8.219285	-33.93341	0.4354478
52.69553	1754.83	8.11293	-33.92345	0.4227503
52.74948	1752.98	8.019552	-33.91386	0.4105597
52.80343	1751.115	7.941501	-33.90466	0.398871
52.85739	1749.237	7.879116	-33.89587	0.3876502
52.91134	1747.347	7.830668	-33.8875	0.3768492
52.96529	1745.447	7.794961	-33.87953	0.3664092
53.01924	1743.538	7.772168	-33.87195	0.3562672
53.07319	1741.625	7.76488	-33.86472	0.3463655
53.12714	1739.712	7.77314	-33.85782	0.3366624
53.1811	1737.805	7.793701	-33.8512	0.3271287
53.23505	1735.908	7.822216	-33.84482	0.317743
53.289	1734.027	7.855668	-33.83867	0.3085073
53.34295	1732.164	7.891899	-33.83268	0.2994253
53.3969	1730.321	7.931354	-33.82679	0.2905259
53.45086	1728.495	7.974792	-33.82092	0.2818518
53.50481	1726.678	8.024316	-33.81499	0.2734729
53.55876	1724.864	8.080351	-33.8089	0.2654683
53.61271	1723.045	8.140214	-33.80257	0.2579339
53.66666	1721.215	8.201011	-33.79598	0.2509637
53.72061	1719.371	8.261021	-33.78909	0.2446598
53.77456	1717.517	8.3203	-33.78188	0.2391114
53.82851	1715.658	8.377466	-33.77437	0.2344087
53.88247	1713.803	8.430355	-33.76659	0.2306103
53.93642	1711.962	8.478136	-33.75856	0.2277568
53.99037	1710.14	8.51876	-33.75032	0.2258526
54.04432	1708.343	8.549554	-33.74192	0.2248669
54.09827	1706.571	8.568628	-33.73337	0.2247549
54.15223	1704.817	8.574374	-33.72473	0.2254309
54.20618	1703.073	8.568078	-33.71605	0.2267909
54.26013	1701.334	8.552764	-33.70735	0.2287204
54.31408	1699.594	8.533219	-33.69868	0.2310965
54.36803	1697.847	8.514925	-33.69007	0.2337903
54.42198	1696.086	8.503474	-33.68153	0.236662
54.47593	1694.308	8.501187	-33.67307	0.2395678
54.52989	1692.515	8.50928	-33.6647	0.2423745
54.58384	1690.71	8.526499	-33.65644	0.2449572
54.63779	1688.901	8.550987	-33.6483	0.2472091
54.69174	1687.093	8.579359	-33.64034	0.2490364
54.74569	1685.289	8.607591	-33.63259	0.2503534
54.79964	1683.492	8.630056	-33.62511	0.2510895
54.8536	1681.699	8.642455	-33.61796	0.2511768
54.90755	1679.911	8.642793	-33.61118	0.2505447
54.9615	1678.124	8.630486	-33.60481	0.2491271
55.01545	1676.334	8.605747	-33.59886	0.2468615
55.0694	1674.535	8.569843	-33.59334	0.243706
55.12336	1672.727	8.524658	-33.58823	0.2396445
55.17731	1670.909	8.472811	-33.58352	0.2346886
55.23126	1669.082	8.419926	-33.57915	0.2288773
55.28521	1667.245	8.371058	-33.57512	0.222276
55.33916	1665.407	8.327222	-33.57137	0.2149787
55.39311	1663.577	8.288384	-33.56784	0.2071032
55.44706	1661.759	8.252984	-33.56449	0.1987811
55.50101	1659.955	8.220759	-33.56126	0.1901629
55.55497	1658.163	8.189439	-33.55811	0.1814069
55.60892	1656.379	8.155117	-33.55501	0.1726671
55.66287	1654.598	8.111978	-33.55194	0.1641082
55.71682	1652.814	8.055124	-33.54889	0.1558961
55.77077	1651.027	7.982687	-33.54583	0.1482022
55.82473	1649.232	7.897644	-33.54276	0.1412233
55.87868	1647.425	7.804614	-33.53966	0.1351491
55.93263	1645.605	7.70677	-33.53652	0.1301703
55.98658	1643.777	7.606958	-33.53332	0.1264301
56.04053	1641.946	7.510651	-33.53004	0.1240179
56.09448	1640.109	7.425178	-33.52668	0.1229397
56.14843	1638.266	7.359425	-33.52324	0.1231156
56.20239	1636.418	7.31912	-33.51973	0.1244142
56.25634	1634.569	7.304446	-33.5162	0.1266609
56.31029	1632.723	7.311777	-33.51267	0.1296781
56.36424	1630.88	7.336344	-33.50917	0.1332908
56.41819	1629.04	7.372759	-33.50572	0.1373302
56.47215	1627.199	7.417388	-33.50233	0.1416585
56.5261	1625.355	7.468793	-33.49898	0.146148
56.58005	1623.506	7.525399	-33.49566	0.1506856
56.634	1621.652	7.585586	-33.4923	0.1551907
56.68795	1619.794	7.647869	-33.48884	0.1596073
56.74191	1617.931	7.711013	-33.48521	0.1639096
56.79586	1616.067	7.772923	-33.4813	0.1681009
56.84981	1614.208	7.831842	-33.47703	0.1722097
56.90376	1612.363	7.88652	-33.47228	0.1762808
56.95771	1610.534	7.937829	-33.46695	0.1803607
57.01166	1608.722	7.987194	-33.4609	0.1845114
57.06561	1606.925	8.037419	-33.45401	0.1888067
57.11956	1605.143	8.090082	-33.44615	0.1933321
57.17352	1603.372	8.145953	-33.4372	0.1981694
57.22747	1601.606	8.203794	-33.42705	0.2033885
57.28142	1599.842	8.26132	-33.41559	0.209033
57.33537	1598.08	8.316936	-33.40272	0.2151166
57.38932	1596.318	8.367653	-33.38835	0.2216248
57.44328	1594.558	8.411751	-33.37242	0.2285039
57.49723	1592.802	8.4493	-33.35491	0.2356708
57.55118	1591.051	8.481154	-33.3358	0.2429981
57.60513	1589.306	8.506501	-33.31514	0.2503499
57.65908	1587.565	8.519192	-33.29295	0.2575559
57.71303	1585.827	8.512023	-33.26933	0.2644511
57.76698	1584.088	8.48379	-33.24434	0.2708597
57.82094	1582.341	8.438125	-33.21808	0.2766118
57.87489	1580.582	8.377819	-33.19065	0.2815554
57.92884	1578.81	8.305062	-33.16214	0.2855777
57.98279	1577.027	8.22271	-33.13264	0.288605
58.03674	1575.233	8.133559	-33.10224	0.2906322
58.09069	1573.427	8.04223	-33.07102	0.2917176
58.14465	1571.612	7.955406	-33.03905	0.2920076
58.1986	1569.791	7.87863	-33.00644	0.2917096
58.25255	1567.968	7.814846	-32.97326	0.2911045
58.3065	1566.147	7.761801	-32.93964	0.2905236
58.36045	1564.328	7.716128	-32.90569	0.2903227
58.41441	1562.511	7.671058	-32.87152	0.2908697
58.46836	1560.699	7.620668	-32.83723	0.2924868
58.52231	1558.891	7.560864	-32.8029	0.2954291
58.57626	1557.089	7.490489	-32.76859	0.2998542
58.63021	1555.291	7.411305	-32.73432	0.305812
58.68416	1553.494	7.330239	-32.70007	0.3132411
58.73811	1551.693	7.255486	-32.66581	0.3219751
58.79206	1549.885	7.192856	-32.63149	0.3317552
58.84602	1548.067	7.145297	-32.59703	0.3422732
58.89997	1546.242	7.115656	-32.56233	0.3531862
58.95392	1544.414	7.103395	-32.52728	0.3641464
59.00787	1542.588	7.106739	-32.49176	0.3748232
59.06182	1540.767	7.12555	-32.45563	0.3849177
59.11578	1538.954	7.159869	-32.41878	0.3941657
59.16973	1537.156	7.20725	-32.3811	0.4023401
59.22368	1535.378	7.263048	-32.34251	0.4092385
59.27763	1533.622	7.321957	-32.30293	0.414696
59.33158	1531.89	7.377663	-32.26228	0.4185804
59.38553	1530.179	7.42474	-32.22053	0.4208103
59.43948	1528.482	7.459342	-32.17767	0.4213512
59.49344	1526.796	7.482223	-32.13368	0.4202133
59.54739	1525.118	7.497295	-32.08859	0.4174609
59.60134	1523.446	7.507318	-32.04244	0.4132063
59.65529	1521.775	7.511643	-31.99529	0.4075985
59.70924	1520.099	7.509731	-31.94725	0.4008188
59.7632	1518.415	7.506339	-31.89841	0.3930679
59.81715	1516.723	7.507338	-31.84892	0.3845621
59.8711	1515.027	7.51173	-31.79891	0.3755231
59.92505	1513.328	7.513479	-31.74853	0.3661562
59.979	1511.631	7.504729	-31.69794	0.3566473
60.03296	1509.935	7.481078	-31.64729	0.3471522
60.08691	1508.239	7.441555	-31.59675	0.337801
60.14086	1506.54	7.387501	-31.54647	0.3286796
60.19481	1504.837	7.322434	-31.49662	0.3198466
60.24876	1503.134	7.249959	-31.44733	0.3113305
60.30271	1501.431	7.176181	-31.39874	0.3031506
60.35666	1499.731	7.106682	-31.35095	0.2953219
60.41061	1498.034	7.042966	-31.30404	0.2878497
60.46457	1496.34	6.986684	-31.25805	0.280741
60.51852	1494.646	6.93789	-31.21298	0.2740147
60.57247	1492.949	6.894063	-31.16879	0.2677054
60.62642	1491.247	6.853566	-31.12539	0.2618657
60.68037	1489.54	6.818162	-31.08267	0.2565553
60.73433	1487.829	6.787234	-31.04048	0.251842
60.78828	1486.114	6.757349	-30.99866	0.2477802
60.84223	1484.398	6.725371	-30.95702	0.2444072
60.89618	1482.687	6.690428	-30.91534	0.2417288
60.95013	1480.988	6.652705	-30.87337	0.2397114
61.00408	1479.307	6.615435	-30.83086	0.2382805
61.05803	1477.649	6.579905	-30.78755	0.2373169
61.11198	1476.017	6.546596	-30.74315	0.2366629
61.16594	1474.414	6.517424	-30.69738	0.2361365
61.21989	1472.838	6.494439	-30.64994	0.2355465
61.27384	1471.283	6.47843	-30.60054	0.234706
61.32779	1469.738	6.469317	-30.54887	0.2334392
61.38174	1468.194	6.465063	-30.49466	0.2316002
61.4357	1466.641	6.464773	-30.43762	0.2290725
61.48965	1465.077	6.468081	-30.37751	0.225784
61.5436	1463.498	6.47801	-30.31408	0.2216911
61.59755	1461.903	6.495813	-30.24709	0.2167982
61.6515	1460.291	6.518676	-30.17635	0.2111423
61.70546	1458.66	6.542834	-30.10171	0.2047913
61.75941	1457.01	6.567794	-30.02307	0.1978455
61.81336	1455.343	6.59466	-29.94034	0.1904338
61.86731	1453.665	6.622396	-29.85352	0.1827296
61.92126	1451.983	6.64826	-29.76258	0.1749187
61.97521	1450.302	6.670125	-29.66755	0.1672372
62.02916	1448.626	6.686841	-29.5685	0.1599586
62.08311	1446.959	6.697774	-29.46547	0.1534108
62.13707	1445.299	6.702337	-29.35855	0.147939
62.19102	1443.645	6.699706	-29.2478	0.143898
62.24497	1441.991	6.690478	-29.13324	0.1416017
62.29892	1440.333	6.677371	-29.01489	0.1412816
62.35287	1438.67	6.660756	-28.89275	0.1430349
62.40683	1437.002	6.640993	-28.76676	0.1468059
62.46078	1435.332	6.620737	-28.63688	0.1524076
62.51473	1433.662	6.602735	-28.50302	0.1595945
62.56868	1431.996	6.58854	-28.36507	0.1680923
62.62263	1430.336	6.579224	-28.22293	0.1776533
62.67658	1428.686	6.575707	-28.07645	0.1880473
62.73053	1427.048	6.578077	-27.92552	0.1990945
62.78448	1425.425	6.58448	-27.76999	0.2106625
62.83844	1423.819	6.591783	-27.60969	0.2226881
62.89239	1422.232	6.596013	-27.44445	0.2351371
62.94634	1420.663	6.596441	-27.27407	0.2480298
63.00029	1419.112	6.593434	-27.09834	0.2613962
63.05424	1417.582	6.586042	-26.91703	0.2752687
63.1082	1416.072	6.574695	-26.72988	0.2896838
63.16215	1414.584	6.562197	-26.53663	0.3046585
63.2161	1413.119	6.552445	-26.33698	0.3202009
63.27005	1411.672	6.547605	-26.1306	0.3362947
63.324	1410.242	6.549151	-25.91715	0.3529192
63.37796	1408.826	6.557125	-25.69626	0.3700267
63.43191	1407.424	6.567479	-25.46758	0.3875561
63.48586	1406.034	6.574136	-25.23073	0.4054186
63.53981	1404.654	6.573167	-24.98536	0.4235233
63.59376	1403.283	6.563744	-24.73111	0.4417807
63.64771	1401.923	6.54774	-24.46765	0.460109
63.70166	1400.577	6.528519	-24.19468	0.4784461
63.75562	1399.247	6.510232	-23.91193	0.4967415
63.80957	1397.938	6.493663	-23.61914	0.5149831
63.86352	1396.654	6.479062	-23.31608	0.5331704
63.91747	1395.396	6.465024	-23.00254	0.5513484
63.97142	1394.161	6.450582	-22.67833	0.5695747
64.02538	1392.948	6.435605	-22.34328	0.5879217
64.07932	1391.754	6.421223	-21.99722	0.6064621
64.13328	1390.579	6.407409	-21.63996	0.6252583
64.18723	1389.42	6.396258	-21.27131	0.6443568
64.24118	1388.27	6.389683	-20.89102	0.6637906
64.29514	1387.12	6.390456	-20.49884	0.6835842
64.34908	1385.963	6.399586	-20.09447	0.703755
64.40304	1384.794	6.418302	-19.67758	0.7243246
64.45699	1383.616	6.447639	-19.2478	0.7453288
64.51094	1382.433	6.488034	-18.80476	0.76682
64.56489	1381.255	6.535738	-18.34801	0.7888433
64.61884	1380.09	6.586144	-17.87713	0.8114592
64.67279	1378.945	6.634491	-17.39163	0.8347239
64.72675	1377.826	6.678255	-16.89101	0.8587214
64.7807	1376.74	6.718477	-16.37472	0.8835074
64.83465	1375.691	6.756822	-15.84222	0.9091679
64.8886	1374.68	6.793636	-15.29292	0.9357477
64.94255	1373.706	6.829576	-14.7262	0.9633437
64.99651	1372.768	6.866002	-14.14142	0.991979
65.05045	1371.86	6.907376	-13.53788	1.021684
65.10441	1370.976	6.95912	-12.91484	1.052462
65.15836	1370.112	7.025984	-12.27154	1.084305
65.21231	1369.262	7.111485	-11.60718	1.117216
65.26626	1368.425	7.218774	-10.9209	1.151131
65.32021	1367.602	7.349587	-10.2119	1.186082
65.37417	1366.799	7.501298	-9.479287	1.221981
65.42812	1366.027	7.669222	-8.722266	1.258849
65.48207	1365.292	7.847591	-7.939961	1.296615
65.53602	1364.603	8.028826	-7.131565	1.335269
65.58997	1363.964	8.202385	-6.296255	1.374784
65.64392	1363.376	8.357955	-5.433222	1.415151
65.69788	1362.839	8.490402	-4.541647	1.456401
65.75182	1362.352	8.59642	-3.620735	1.498538
65.80578	1361.918	8.674988	-2.669674	1.541609
65.85973	1361.535	8.728273	-1.687658	1.585675
65.91368	1361.203	8.761776	-0.6738909	1.630824
65.96764	1360.917	8.784727	0.3724056	1.67717
66.02158	1360.674	8.806228	1.451986	1.724839
66.07554	1360.471	8.833501	2.565612	1.774002
66.12949	1360.313	8.871027	3.713991	1.82479
66.18344	1360.202	8.918232	4.897779	1.877429
66.23739	1360.14	8.97118	6.117665	1.932091
66.29134	1360.133	9.024892	7.374234	1.989048
66.34529	1360.185	9.075026	8.668068	2.048546
66.39925	1360.303	9.119229	9.999739	2.110838
66.4532	1360.491	9.157961	11.36976	2.176248
66.50715	1360.756	9.192636	12.77864	2.244996
66.5611	1361.097	9.22411	14.22683	2.317376
66.61505	1361.515	9.252728	15.71486	2.39359
66.66901	1362.007	9.280165	17.24314	2.473921
66.72295	1362.576	9.310854	18.81221	2.558516
66.77691	1363.223	9.35274	20.42251	2.647576
66.83086	1363.948	9.415031	22.07462	2.741177
66.88481	1364.754	9.505124	23.76897	2.839427
66.93877	1365.645	9.62812	25.50619	2.942267
66.99271	1366.623	9.785534	27.28674	3.049718
67.04667	1367.69	9.975581	29.11123	3.161642
67.10062	1368.848	10.18941	30.98016	3.277978
67.15457	1370.099	10.41836	32.89418	3.398534
67.20852	1371.446	10.65516	34.85382	3.52318
67.26247	1372.895	10.89226	36.8597	3.651703
67.31642	1374.448	11.1184	38.9124	3.783872
67.37038	1376.111	11.3241	41.01249	3.919428
67.42432	1377.885	11.50237	43.16059	4.058003
67.47828	1379.775	11.65293	45.35717	4.199338
67.53223	1381.79	11.77793	47.6029	4.34293
67.58618	1383.935	11.87977	49.89821	4.488446
67.64014	1386.218	11.9646	52.2438	4.635312
67.69408	1388.639	12.0444	54.64009	4.783144
67.74804	1391.198	12.12775	57.0877	4.931394
67.80199	1393.891	12.22278	59.58709	5.079607
67.85594	1396.716	12.33521	62.13883	5.227248
67.90989	1399.672	12.46945	64.74331	5.373897
67.96384	1402.755	12.62675	67.40096	5.519093
68.01779	1405.968	12.80736	70.11213	5.662428
68.07175	1409.314	13.01099	72.87704	5.803618
68.1257	1412.801	13.23677	75.69595	5.942308
68.17965	1416.436	13.48369	78.56886	6.078352
68.2336	1420.222	13.75025	81.49581	6.211502
68.28755	1424.166	14.03426	84.47666	6.341671
68.34151	1428.271	14.33394	87.51122	6.468759
68.39545	1432.544	14.64992	90.59914	6.592686
68.44941	1436.994	14.98827	93.74004	6.713411
68.50336	1441.623	15.35806	96.9334	6.830904
68.55731	1446.432	15.76604	100.1786	6.945163
68.61127	1451.417	16.2164	103.4751	7.056199
68.66521	1456.577	16.71034	106.8219	7.164058
68.71917	1461.912	17.24596	110.2185	7.268777
68.77312	1467.418	17.81825	113.6638	7.370416
68.82707	1473.096	18.42076	117.1569	7.469036
68.88102	1478.949	19.04519	120.6969	7.564663
68.93497	1484.981	19.68369	124.2826	7.657381
68.98892	1491.197	20.32808	127.913	7.747173
69.04288	1497.602	20.96873	131.5867	7.834156
69.09682	1504.204	21.59777	135.3025	7.918274
69.15078	1511.009	22.21139	139.059	7.999682
69.20473	1518.026	22.80836	142.8546	8.07831
69.25868	1525.264	23.38772	146.6879	8.154179
69.31264	1532.733	23.9506	150.5571	8.227187
69.36658	1540.434	24.49998	154.4603	8.297238
69.42054	1548.367	25.03883	158.3958	8.364106
69.47449	1556.53	25.56931	162.3613	8.427544
69.52844	1564.924	26.09257	166.3548	8.487177
69.58239	1573.55	26.61223	170.374	8.542613
69.63634	1582.409	27.13401	174.4162	8.593369
69.6903	1591.504	27.66157	178.4787	8.638893
69.74425	1600.841	28.19475	182.5587	8.678655
69.7982	1610.432	28.72989	186.6529	8.711973
69.85215	1620.287	29.2613	190.7579	8.738294
69.90611	1630.414	29.78014	194.87	8.756903
69.96005	1640.817	30.27831	198.985	8.767169
70.01401	1651.496	30.75084	203.0987	8.768414
70.06796	1662.455	31.19683	207.2063	8.759999
70.12191	1673.696	31.61875	211.3027	8.741291
70.17586	1685.22	32.02286	215.3825	8.711692
70.22981	1697.027	32.41956	219.4399	8.670643
70.28377	1709.11	32.8173	223.4686	8.617578
70.33772	1721.466	33.22206	227.4623	8.551969
70.39167	1734.092	33.63583	231.414	8.473371
70.44562	1746.981	34.06273	235.3166	8.381323
70.49957	1760.125	34.5068	239.1627	8.275477
70.55352	1773.512	34.96942	242.9445	8.155519
70.60748	1787.133	35.44711	246.6543	8.02122
70.66142	1800.983	35.93357	250.2838	7.872472
70.71538	1815.06	36.42131	253.825	7.709184
70.76933	1829.363	36.90488	257.2694	7.531463
70.82328	1843.898	37.37638	260.6088	7.339384
70.87724	1858.67	37.83086	263.8347	7.133157
70.93118	1873.686	38.26265	266.9388	6.91305
70.98514	1888.945	38.66953	269.9129	6.679398
71.03909	1904.452	39.05464	272.7487	6.432642
71.09304	1920.206	39.42825	275.4387	6.173129
71.14699	1936.204	39.80134	277.9748	5.901568
71.20094	1952.439	40.18578	280.35	5.618376
71.25489	1968.905	40.59285	282.557	5.324365
71.30885	1985.595	41.03252	284.5894	5.0201
71.3628	2002.502	41.51099	286.4409	4.706597
71.41675	2019.621	42.02522	288.1059	4.384322
71.4707	2036.948	42.56428	289.5791	4.05443
71.52465	2054.48	43.11597	290.856	3.717549
71.57861	2072.212	43.66838	291.9323	3.374805
71.63255	2090.138	44.21092	292.8047	3.026947
71.68651	2108.251	44.73417	293.4701	2.674943
71.74046	2126.544	45.23003	293.9262	2.319677
71.79441	2145.01	45.69557	294.1714	1.961991
71.84836	2163.646	46.12884	294.2044	1.602972
71.90231	2182.442	46.53043	294.0249	1.243206
71.95627	2201.38	46.89931	293.6326	0.8838531
72.01022	2220.438	47.23446	293.0288	0.5252811
72.06417	2239.59	47.53095	292.214	0.1696369
72.11812	2258.804	47.78489	291.1906	0.1884925
72.17207	2278.042	47.99494	289.9604	0.5391921
72.22602	2297.263	48.16142	288.5266	0.8873408
72.27998	2316.426	48.28347	286.8919	1.231511
72.33392	2335.497	48.35778	285.0603	1.571277
72.38788	2354.445	48.37646	283.0356	1.906049
72.44183	2373.245	48.33207	280.8222	2.235229
72.49578	2391.868	48.21432	278.4249	2.558499
72.54974	2410.29	48.01096	275.8488	2.875211
72.60368	2428.48	47.71474	273.0992	3.185066
72.65764	2446.408	47.32497	270.1816	3.487326
72.71159	2464.041	46.84752	267.1021	3.781768
72.76554	2481.344	46.29005	263.8668	4.067827
72.81949	2498.287	45.66483	260.4822	4.345017
72.87344	2514.837	44.98346	256.9549	4.612975
72.92739	2530.965	44.25393	253.2916	4.871047
72.98135	2546.649	43.48744	249.4995	5.119102
73.0353	2561.874	42.69754	245.5857	5.356542
73.08925	2576.628	41.89665	241.558	5.583231
73.1432	2590.902	41.09459	237.4238	5.798752
73.19715	2604.693	40.30238	233.1911	6.002905
73.25111	2618	39.52514	228.8678	6.195466
73.30505	2630.825	38.76462	224.4621	6.376077
73.35901	2643.17	38.01724	219.9823	6.544542
73.41296	2655.038	37.27624	215.4366	6.700486
73.46691	2666.434	36.53247	210.8334	6.843701
73.52086	2677.362	35.78117	206.1812	6.973804
73.57481	2687.834	35.02167	201.4884	7.090592
73.62877	2697.863	34.25771	196.7637	7.193743
73.68272	2707.457	33.494	192.0157	7.283073
73.73667	2716.625	32.73881	187.2528	7.358374
73.79062	2725.379	32.00333	182.4838	7.419501
73.84457	2733.731	31.30359	177.7171	7.466365
73.89852	2741.698	30.65596	172.9614	7.498932
73.95248	2749.291	30.07138	168.225	7.517234
74.00642	2756.529	29.55199	163.5161	7.521358
74.06038	2763.433	29.09747	158.843	7.511435
74.11433	2770.021	28.70353	154.2135	7.487807
74.16828	2776.311	28.36055	149.6353	7.450709
74.22224	2782.321	28.0554	145.1156	7.400666
74.27618	2788.069	27.77142	140.6616	7.338077
74.33014	2793.571	27.49426	136.2797	7.263589
74.38409	2798.844	27.21849	131.9762	7.177768
74.43804	2803.901	26.94525	127.7568	7.08145
74.49199	2808.758	26.6762	123.6268	6.975276
74.54594	2813.427	26.41612	119.5908	6.860148
74.59989	2817.926	26.17288	115.6531	6.736975
74.65385	2822.273	25.95425	111.8174	6.606639
74.7078	2826.485	25.76774	108.0866	6.470187
74.76175	2830.575	25.62066	104.4635	6.328585
74.8157	2834.554	25.51516	100.9498	6.182933
74.86965	2838.432	25.44615	97.547	6.034224
74.92361	2842.219	25.40471	94.25585	5.883487
74.97755	2845.923	25.37977	91.07662	5.731717
75.03151	2849.548	25.35326	88.00907	5.57984
75.08546	2853.098	25.3061	85.05247	5.428757
75.13941	2856.577	25.22375	82.20563	5.279201
75.19336	2859.993	25.09632	79.46701	5.132035
75.24731	2863.354	24.92122	76.83447	4.987659
75.30127	2866.663	24.70522	74.30573	4.846705
75.35522	2869.919	24.46175	71.87789	4.709335
75.40917	2873.116	24.20407	69.54803	4.575875
75.46312	2876.25	23.94303	67.31268	4.446325
75.51707	2879.315	23.68543	65.16817	4.320657
75.57102	2882.318	23.43199	63.11079	4.198849
75.62498	2885.261	23.18095	61.13646	4.08068
75.67892	2888.142	22.92499	59.24129	3.966117
75.73288	2890.958	22.6564	57.42097	3.854812
75.78683	2893.705	22.37233	55.67158	3.74672
75.84078	2896.381	22.07946	53.98889	3.64155
75.89474	2898.987	21.78964	52.36909	3.539304
75.94868	2901.523	21.50534	50.80827	3.439845
76.00264	2903.984	21.22632	49.30285	3.343245
76.05659	2906.371	20.95469	47.84938	3.249675
76.11054	2908.683	20.69696	46.44467	3.159435
76.16449	2910.927	20.46251	45.08576	3.072985
76.21844	2913.116	20.25914	43.76992	2.990942
76.27239	2915.257	20.08733	42.49475	2.914184
76.32635	2917.355	19.94251	41.258	2.843677
76.3803	2919.415	19.82098	40.05777	2.780699
76.43425	2921.443	19.72047	38.89231	2.726586
76.4882	2923.44	19.63944	37.76017	2.682861
76.54215	2925.402	19.57608	36.66012	2.65098
76.59611	2927.324	19.52659	35.59115	2.632328
76.65005	2929.204	19.48685	34.55245	2.628076
76.70401	2931.033	19.45581	33.54344	2.638999
76.75796	2932.807	19.43052	32.56368	2.665457
76.81191	2934.526	19.40473	31.61288	2.707238
76.86586	2936.19	19.36795	30.69085	2.763694
76.91982	2937.801	19.31597	29.79752	2.833593
76.97377	2939.356	19.24999	28.93284	2.915436
77.02772	2940.856	19.1799	28.09689	3.00731
77.08167	2942.302	19.11627	27.2897	3.107235
77.13562	2943.697	19.06227	26.51139	3.213068
77.18958	2945.04	19.01491	25.76203	3.322721
77.24352	2946.34	18.96903	25.0417	3.434188
77.29748	2947.596	18.91844	24.35045	3.545573
77.35143	2948.807	18.86126	23.68832	3.655204
77.40538	2949.959	18.79926	23.05527	3.761538
77.45934	2951.036	18.74339	22.45128	3.863319
77.51328	2952.03	18.70739	21.87618	3.959417
77.56724	2952.932	18.70877	21.32982	4.048975
77.62119	2953.742	18.76066	20.81192	4.131249
77.67514	2954.457	18.87391	20.32213	4.205705
77.72909	2955.081	19.05502	19.86005	4.271918
77.78304	2955.621	19.31037	19.42511	4.329706
77.83699	2956.094	19.64972	19.01684	4.378803
77.89095	2956.513	20.08053	18.63459	4.419264
77.94489	2956.893	20.60272	18.27786	4.451056
77.99885	2957.239	21.20946	17.94594	4.474393
78.0528	2957.553	21.88702	17.63836	4.489399
78.10675	2957.84	22.61962	17.35442	4.49638
78.16071	2958.107	23.3957	17.09371	4.495507
78.21465	2958.358	24.20284	16.85564	4.487106
78.26861	2958.593	25.02414	16.63983	4.471338
78.32256	2958.813	25.83845	16.44592	4.448444
78.37651	2959.027	26.62538	16.27359	4.418608
78.43046	2959.248	27.36704	16.12264	4.382015
78.48441	2959.492	28.05229	15.99284	4.338766
78.53837	2959.773	28.67638	15.88409	4.288961
78.59232	2960.108	29.23543	15.79626	4.232587
78.64627	2960.506	29.73111	15.72931	4.169625
78.70022	2960.974	30.1735	15.68311	4.099986
78.75417	2961.513	30.57685	15.65757	4.023548
78.80812	2962.125	30.95173	15.65258	3.940147
78.86208	2962.808	31.30077	15.668	3.849542
78.91602	2963.554	31.61656	15.70363	3.751506
78.96998	2964.355	31.88806	15.75927	3.645638
79.02393	2965.202	32.10794	15.83466	3.53166
79.07788	2966.09	32.2689	15.92947	3.409153
79.13184	2967.014	32.36441	16.0433	3.277862
79.18578	2967.971	32.39075	16.17568	3.137465
79.23974	2968.965	32.34805	16.32601	2.98781
79.29369	2970.002	32.24063	16.49364	2.828758
79.34764	2971.083	32.07624	16.67773	2.660356
79.40159	2972.207	31.86776	16.87741	2.482735
79.45554	2973.368	31.63125	17.09162	2.296227
79.50949	2974.561	31.38659	17.31925	2.101298
79.56345	2975.783	31.15492	17.55903	1.898592
79.61739	2977.024	30.95423	17.80963	1.688935
79.67135	2978.273	30.79733	18.0696	1.473359
79.7253	2979.516	30.68962	18.33743	1.25316
79.77925	2980.742	30.62767	18.61156	1.030015
79.83321	2981.94	30.60104	18.89042	0.8063383
79.88715	2983.107	30.59657	19.17245	0.5864116
79.94111	2984.243	30.60413	19.45607	0.3812143
79.99506	2985.35	30.61398	19.73973	0.2349265
80.04901	2986.438	30.61716	20.02197	0.2671634
80.10296	2987.514	30.60996	20.3013	0.4347782
80.15691	2988.591	30.59065	20.5764	0.6330137
80.21087	2989.675	30.56058	20.84596	0.8346167
80.26482	2990.771	30.52344	21.10888	1.03198
80.31877	2991.876	30.48618	21.36411	1.221753
80.37272	2992.992	30.4555	21.61083	1.402016
80.42667	2994.117	30.44256	21.84832	1.571432
80.48062	2995.245	30.46095	22.07607	1.72911
80.53458	2996.375	30.51911	22.29367	1.874415
80.58852	2997.509	30.61315	22.50092	2.007033
80.64248	2998.649	30.73042	22.69764	2.126845
80.69643	2999.799	30.84986	22.88381	2.233964
80.75038	3000.96	30.94872	23.05949	2.328708
80.80434	3002.139	31.00891	23.22479	2.41156
80.85828	3003.348	31.01776	23.37992	2.483174
80.91224	3004.591	30.96949	23.52509	2.544358
80.96619	3005.869	30.8643	23.66053	2.596073
81.02014	3007.183	30.70376	23.78652	2.639405
81.07409	3008.53	30.48535	23.90332	2.675532
81.12804	3009.905	30.20926	24.01119	2.705676
81.18199	3011.306	29.88116	24.1104	2.731115
81.23595	3012.727	29.51294	24.20118	2.753089
81.2899	3014.163	29.11586	24.28375	2.772865
81.34385	3015.61	28.69711	24.35827	2.791607
81.3978	3017.065	28.25723	24.42483	2.810441
81.45175	3018.523	27.79534	24.48341	2.830348
81.50571	3019.987	27.31082	24.53391	2.852233
81.55965	3021.458	26.80429	24.57607	2.876831
81.61361	3022.938	26.28494	24.6095	2.90478
81.66756	3024.429	25.76851	24.63365	2.936537
81.72151	3025.932	25.27275	24.64787	2.972452
81.77546	3027.446	24.81256	24.65138	3.01269
81.82941	3028.964	24.39868	24.64328	3.057304
81.88337	3030.484	24.03252	24.6226	3.106197
81.93732	3031.995	23.71279	24.5883	3.159148
81.99127	3033.492	23.43985	24.53925	3.215822
82.04522	3034.969	23.21692	24.47435	3.275811
82.09917	3036.419	23.04841	24.39244	3.338652
82.15312	3037.844	22.93082	24.29242	3.403855
82.20708	3039.243	22.85449	24.1732	3.470926
82.26102	3040.622	22.8087	24.03376	3.539338
82.31498	3041.987	22.78442	23.87317	3.608619
82.36893	3043.347	22.77484	23.69048	3.678209
82.42288	3044.707	22.77512	23.48495	3.747663
82.47684	3046.066	22.78383	23.25582	3.81647
82.53078	3047.425	22.80418	23.00253	3.88426
82.58474	3048.789	22.84224	22.72453	3.950623
82.63869	3050.158	22.89835	22.42145	4.015275
82.69264	3051.53	22.96801	22.09294	4.077914
82.74659	3052.902	23.04385	21.73885	4.138363
82.80054	3054.27	23.11495	21.35904	4.196433
82.85449	3055.631	23.17515	20.95351	4.252053
82.90845	3056.983	23.22172	20.52234	4.305209
82.9624	3058.329	23.25268	20.06564	4.35596
83.01635	3059.669	23.25845	19.58364	4.40448
83.0703	3061.006	23.22688	19.07655	4.450982
83.12425	3062.339	23.14764	18.54469	4.495784
83.17821	3063.671	23.01803	17.98841	4.539241
83.23215	3065	22.84679	17.40813	4.581775
83.28611	3066.324	22.64613	16.80433	4.623852
83.34006	3067.638	22.42731	16.17758	4.66597
83.39401	3068.937	22.2021	15.5285	4.708652
83.44796	3070.213	21.97608	14.85775	4.752411
83.50191	3071.462	21.74918	14.16605	4.797759
83.55587	3072.675	21.51664	13.45412	4.845137
83.60982	3073.842	21.274	12.72266	4.89495
83.66377	3074.956	21.01494	11.97236	4.947515
83.71772	3076.013	20.73623	11.20387	5.003088
83.77168	3077.009	20.43515	10.41784	5.061859
83.82562	3077.945	20.11015	9.614836	5.123896
83.87958	3078.82	19.75939	8.795411	5.189224
83.93353	3079.635	19.3854	7.960015	5.257698
83.98748	3080.387	18.99203	7.109163	5.329185
84.04143	3081.067	18.59002	6.243242	5.403383
84.09538	3081.666	18.19289	5.36272	5.480017
84.14934	3082.172	17.81498	4.468015	5.558712
84.20329	3082.577	17.46545	3.559632	5.639125
84.25724	3082.879	17.14965	2.638092	5.720862
84.31119	3083.079	16.87023	1.703974	5.803512
84.36514	3083.182	16.62728	0.7579086	5.886626
84.41909	3083.19	16.41869	-0.1994266	5.969707
84.47305	3083.107	16.24609	-1.167294	6.052224
84.52699	3082.94	16.11548	-2.144919	6.133582
84.58095	3082.698	16.02758	-3.131437	6.213189
84.6349	3082.391	15.97773	-4.125993	6.290357
84.68885	3082.029	15.95635	-5.127658	6.364398
84.74281	3081.62	15.95108	-6.135518	6.434556
84.79675	3081.165	15.95212	-7.148612	6.5001
84.85071	3080.661	15.95499	-8.165979	6.560303
84.90466	3080.103	15.96066	-9.186648	6.614469
84.95861	3079.484	15.9707	-10.20963	6.661953
85.01256	3078.8	15.98886	-11.23397	6.702143
85.06651	3078.049	16.01771	-12.25868	6.734521
85.12046	3077.23	16.05789	-13.28286	6.758623
85.17442	3076.34	16.11128	-14.30557	6.774068
85.22837	3075.379	16.17891	-15.32592	6.780547
85.28232	3074.349	16.25831	-16.34299	6.777814
85.33627	3073.254	16.34406	-17.35587	6.765713
85.39022	3072.106	16.4257	-18.36367	6.744162
85.44418	3070.912	16.48834	-19.36547	6.713162
85.49812	3069.682	16.52083	-20.3604	6.672795
85.55208	3068.417	16.52005	-21.34756	6.623208
85.60603	3067.117	16.48676	-22.32609	6.564637
85.65998	3065.775	16.42548	-23.29512	6.497369
85.71394	3064.384	16.3411	-24.25385	6.42178
85.76788	3062.936	16.23533	-25.2015	6.338315
85.82184	3061.428	16.11008	-26.13732	6.2475
85.87579	3059.861	15.97132	-27.06063	6.149912
85.92974	3058.239	15.8262	-27.97083	6.046176
85.98369	3056.571	15.67983	-28.86735	5.936966
86.03764	3054.858	15.53666	-29.74977	5.822965
86.09159	3053.102	15.40233	-30.61766	5.704875
86.14555	3051.3	15.28677	-31.47073	5.583386
86.19949	3049.45	15.19615	-32.30872	5.459224
86.25345	3047.552	15.1344	-33.13145	5.333066
86.3074	3045.61	15.09902	-33.93875	5.205624
86.36135	3043.631	15.08632	-34.73052	5.077552
86.41531	3041.617	15.09435	-35.50667	4.949472
86.46925	3039.568	15.12544	-36.2671	4.821967
86.52321	3037.486	15.18202	-37.01173	4.69557
86.57716	3035.369	15.26428	-37.74046	4.570788
86.63111	3033.218	15.36677	-38.45321	4.448053
86.68506	3031.031	15.48177	-39.14988	4.327767
86.73901	3028.811	15.60502	-39.83041	4.210206
86.79296	3026.561	15.7363	-40.49472	4.095644
86.84692	3024.286	15.8772	-41.1428	3.984227
86.90087	3021.985	16.0296	-41.7746	3.8761
86.95482	3019.654	16.19314	-42.39016	3.771286
87.00877	3017.286	16.36797	-42.98948	3.669806
87.06272	3014.878	16.55397	-43.57265	3.571624
87.11668	3012.429	16.74997	-44.13979	3.476693
87.17062	3009.936	16.95276	-44.69106	3.384919
87.22458	3007.395	17.1574	-45.22662	3.296214
87.27853	3004.803	17.35622	-45.74667	3.210469
87.33248	3002.158	17.54322	-46.25142	3.127564
87.38644	2999.46	17.71149	-46.74106	3.04739
87.44038	2996.715	17.84882	-47.21582	2.96982
87.49434	2993.927	17.94188	-47.6759	2.894763
87.54829	2991.107	17.9793	-48.12153	2.822082
87.60224	2988.259	17.95791	-48.55291	2.75166
87.65619	2985.386	17.88462	-48.97024	2.683375
87.71014	2982.488	17.77205	-49.37369	2.617114
87.76409	2979.568	17.63587	-49.7634	2.55281
87.81805	2976.629	17.49072	-50.13955	2.490396
87.87199	2973.672	17.34773	-50.50226	2.429875
87.92595	2970.695	17.2143	-50.85171	2.371262
87.9799	2967.699	17.09583	-51.18807	2.314633
88.03385	2964.689	16.99746	-51.51151	2.260111
88.08781	2961.667	16.92539	-51.82222	2.207826
88.14175	2958.636	16.8821	-52.12041	2.157984
88.19571	2955.601	16.86521	-52.40636	2.110757
88.24966	2952.562	16.8666	-52.68032	2.066399
88.30361	2949.52	16.87749	-52.94268	2.025133
88.35756	2946.48	16.89036	-53.19376	1.987267
88.41151	2943.443	16.89969	-53.43403	1.953022
88.46547	2940.412	16.90336	-53.66394	1.922672
88.51942	2937.39	16.90667	-53.884	1.896385
88.57337	2934.379	16.9201	-54.0947	1.874362
88.62732	2931.378	16.95382	-54.29656	1.8567
88.68127	2928.387	17.01636	-54.49012	1.843488
88.73522	2925.402	17.11031	-54.67591	1.834771
88.78918	2922.42	17.23664	-54.85446	1.830555
88.84312	2919.442	17.39366	-55.02633	1.830803
88.89708	2916.467	17.57766	-55.19204	1.835439
88.95103	2913.494	17.78091	-55.35216	1.844348
89.00498	2910.519	17.99042	-55.50724	1.857387
89.05894	2907.538	18.19455	-55.65786	1.874376
89.11288	2904.548	18.3855	-55.80458	1.895078
89.16684	2901.544	18.55842	-55.948	1.919209
89.22079	2898.521	18.70535	-56.08867	1.946421
89.27474	2895.479	18.82089	-56.2272	1.976303
89.32869	2892.422	18.90582	-56.36412	2.008411
89.38264	2889.355	18.96695	-56.49998	2.042237
89.43659	2886.281	19.01306	-56.63529	2.077282
89.49055	2883.208	19.05418	-56.77048	2.113032
89.54449	2880.14	19.09673	-56.90596	2.148996
89.59845	2877.081	19.14156	-57.04205	2.184672
89.6524	2874.03	19.18709	-57.17903	2.219602
89.70635	2870.985	19.23446	-57.3171	2.253328
89.76031	2867.946	19.2851	-57.45635	2.285424
89.81425	2864.916	19.33794	-57.59684	2.31548
89.86821	2861.895	19.38717	-57.7385	2.343091
89.92216	2858.883	19.42595	-57.88123	2.367889
89.97611	2855.876	19.45234	-58.02483	2.389531
90.03006	2852.872	19.47108	-58.16907	2.407722
90.08401	2849.865	19.49045	-58.31364	2.422203
90.13797	2846.85	19.51329	-58.45819	2.432764
90.19192	2843.823	19.53725	-58.60236	2.439226
90.24587	2840.787	19.56015	-58.74572	2.4415
90.29982	2837.737	19.58239	-58.88788	2.439507
90.35378	2834.674	19.60568	-59.02845	2.433255
90.40772	2831.599	19.62607	-59.16704	2.422731
90.46168	2828.512	19.64018	-59.30327	2.407981
90.51563	2825.41	19.64496	-59.43679	2.389019
90.56958	2822.296	19.63996	-59.56726	2.365914
90.62353	2819.167	19.62434	-59.69436	2.338707
90.67748	2816.026	19.5951	-59.81777	2.307494
90.73144	2812.869	19.5486	-59.93721	2.272362
90.78539	2809.692	19.48278	-60.05242	2.233471
90.83934	2806.49	19.39908	-60.16316	2.190986
90.89329	2803.262	19.30212	-60.26925	2.145129
90.94724	2800.005	19.19442	-60.37053	2.096157
91.00119	2796.715	19.07471	-60.46692	2.044357
91.05515	2793.391	18.94247	-60.55839	1.990052
91.10909	2790.034	18.8	-60.64494	1.933584
91.16305	2786.645	18.64873	-60.72665	1.87533
91.217	2783.221	18.49083	-60.80359	1.815637
91.27095	2779.765	18.32894	-60.8759	1.754881
91.32491	2776.281	18.16406	-60.94374	1.693394
91.37885	2772.772	17.99652	-61.0073	1.631521
91.43281	2769.247	17.82794	-61.06675	1.569619
91.48676	2765.709	17.66331	-61.1223	1.507984
91.54071	2762.162	17.50831	-61.17411	1.446936
91.59466	2758.609	17.3659	-61.22238	1.386695
91.64861	2755.05	17.23814	-61.26727	1.327528
91.70256	2751.487	17.12393	-61.30891	1.269584
91.75652	2747.923	17.02179	-61.34742	1.213046
91.81047	2744.362	16.93133	-61.3829	1.157969
91.86442	2740.8	16.84945	-61.4154	1.10444
91.91837	2737.239	16.7714	-61.44495	1.052448
91.97232	2733.684	16.69436	-61.47154	1.001968
92.02628	2730.144	16.6228	-61.49512	0.9529138
92.08022	2726.622	16.56402	-61.51563	0.9051519
92.13418	2723.121	16.52268	-61.53297	0.85852
92.18813	2719.645	16.50266	-61.54704	0.8128175
92.24208	2716.199	16.50682	-61.55772	0.7678686
92.29603	2712.786	16.53873	-61.56491	0.7234913
92.34998	2709.411	16.59715	-61.56853	0.6795531
92.40394	2706.076	16.67709	-61.56843	0.636053
92.45789	2702.782	16.77388	-61.54305	0.6095129
92.51184	2699.525	16.88163	-61.52106	0.5849687
92.56579	2696.298	16.99409	-61.50127	0.561821
92.61974	2693.091	17.10453	-61.48259	0.5395486
92.67369	2689.901	17.20637	-61.46419	0.5178458
92.72765	2686.716	17.29301	-61.4455	0.4965941
92.78159	2683.532	17.36157	-61.42617	0.475823
92.83555	2680.347	17.41181	-61.40599	0.4556441
92.8895	2677.164	17.44714	-61.38486	0.4362397
92.94345	2673.986	17.47048	-61.36275	0.4178298
92.99741	2670.812	17.48479	-61.33969	0.4006543
93.05135	2667.644	17.49013	-61.3157	0.384975
93.10531	2664.486	17.4874	-61.29084	0.3710517
93.15926	2661.336	17.47744	-61.26518	0.3591449
93.21321	2658.197	17.46078	-61.23881	0.3494942
93.26716	2655.065	17.43711	-61.2118	0.342305
93.32111	2651.942	17.40775	-61.18424	0.3377302
93.37506	2648.822	17.37162	-61.15621	0.3358666
93.42902	2645.7	17.32473	-61.12781	0.3367322
93.48297	2642.566	17.26323	-61.0991	0.3402691
93.53692	2639.41	17.19342	-61.07019	0.3463613
93.59087	2636.225	17.1267	-61.04114	0.3548348
93.64482	2633.005	17.07181	-61.01204	0.3654772
93.69878	2629.751	17.03366	-60.98294	0.3780615
93.75272	2626.473	17.01702	-60.95394	0.3923566
93.80668	2623.174	17.02364	-60.92508	0.4081408
93.86063	2619.861	17.05434	-60.89644	0.4252019
93.91458	2616.541	17.1064	-60.86806	0.4433572
93.96853	2613.224	17.17665	-60.84002	0.4624375
94.02248	2609.916	17.26192	-60.81234	0.4822985
94.07644	2606.581	17.36604	-60.7851	0.5028146
94.13039	2603.236	17.45433	-60.75832	0.5238793
94.18434	2599.877	17.53877	-60.73206	0.5453985
94.23829	2596.509	17.62452	-60.70633	0.5672988
94.29224	2593.131	17.71313	-60.68118	0.5895157
94.34619	2589.744	17.80447	-60.65663	0.6119913
94.40015	2586.35	17.89867	-60.6327	0.6346818
94.45409	2582.949	17.99583	-60.60942	0.6575463
94.50805	2579.543	18.09511	-60.5868	0.6805577
94.562	2576.133	18.19552	-60.56485	0.7036838
94.61595	2572.72	18.29619	-60.54358	0.726904
94.66991	2569.304	18.39628	-60.523	0.7501976
94.72385	2565.887	18.49512	-60.50311	0.7735528
94.77781	2562.468	18.59197	-60.48391	0.7969567
94.83176	2559.049	18.68676	-60.46539	0.8203973
94.88571	2555.628	18.77887	-60.44756	0.8438706
94.93966	2552.207	18.86856	-60.4304	0.8673624
94.99361	2548.783	18.95548	-60.41389	0.8908743
