T[Â°C]	330nm [counts / mm]	S.D.	First derivative	S.D. of first derivative
20.00082	3326.057		-48.22121	
20.05477	3323.274		-48.13686	
20.10872	3320.487		-48.05339	
20.16268	3317.696		-47.97082	
20.21663	3314.904		-47.88919	
20.27058	3312.11		-47.80851	
20.32453	3309.315		-47.7288	
20.37848	3306.522		-47.65009	
20.43244	3303.73		-47.57238	
20.48639	3300.941		-47.4957	
20.54034	3298.156		-47.42006	
20.59429	3295.375		-47.34546	
20.64824	3292.598		-47.27189	
20.70219	3289.826		-47.19936	
20.75615	3287.057		-47.12787	
20.8101	3284.287		-47.0574	
20.86405	3281.51		-46.98793	
20.918	3278.711		-46.91944	
20.97195	3275.874		-46.85189	
21.0259	3273.185		-46.78527	
21.07985	3270.531		-46.71951	
21.13381	3267.913		-46.65457	
21.18776	3265.333		-46.59039	
21.24171	3262.793		-46.5269	
21.29566	3260.295		-46.46402	
21.34961	3257.846		-46.40168	
21.40356	3255.447		-46.33979	
21.45752	3253.095		-46.27825	
21.51147	3250.797		-46.21696	
21.56542	3248.554		-46.15581	
21.61937	3246.369		-46.0947	
21.67332	3244.235		-46.03352	
21.72727	3242.141		-45.97215	
21.78123	3240.07		-45.91047	
21.83518	3237.997		-45.84837	
21.88913	3235.902		-45.78574	
21.94308	3233.775		-45.72245	
21.99703	3231.611		-45.65839	
22.05098	3229.406		-45.59344	
22.10494	3227.155		-45.52753	
22.15889	3224.854		-45.46055	
22.21284	3222.503		-45.39249	
22.26679	3220.102		-45.32336	
22.32074	3217.657		-45.25334	
22.37469	3215.18		-45.18277	
22.42865	3212.685		-45.11234	
22.4826	3210.181		-45.04317	
22.53655	3207.677		-44.97692	
22.5905	3205.177		-44.91562	
22.64445	3202.679		-44.87746	
22.6984	3200.173		-44.84214	
22.75236	3197.651		-44.80986	
22.80631	3195.109		-44.78077	
22.86026	3192.554		-44.755	
22.91421	3189.99		-44.73266	
22.96816	3187.421		-44.71383	
23.02211	3184.85		-44.69852	
23.07607	3182.286		-44.68669	
23.13002	3179.739		-44.67822	
23.18397	3177.217		-44.67292	
23.23792	3174.722		-44.67054	
23.29187	3172.259		-44.67076	
23.34582	3169.82		-44.67323	
23.39977	3167.393		-44.6775	
23.45373	3164.97		-44.6831	
23.50768	3162.541		-44.68953	
23.56163	3160.101		-44.69623	
23.61558	3157.652		-44.70269	
23.66953	3155.206		-44.70841	
23.72349	3152.77		-44.71292	
23.77744	3150.348		-44.71581	
23.83139	3147.933		-44.7167	
23.88534	3145.527		-44.71526	
23.93929	3143.131		-44.71121	
23.99324	3140.746		-44.70439	
24.0472	3138.365		-44.6947	
24.10115	3135.979		-44.68217	
24.1551	3133.583		-44.66688	
24.20905	3131.173		-44.64901	
24.263	3128.756		-44.62876	
24.31695	3126.339		-44.60637	
24.3709	3123.931		-44.58211	
24.42486	3121.538		-44.5563	
24.47881	3119.164		-44.52932	
24.53276	3116.811		-44.50154	
24.58671	3114.476		-44.47336	
24.64066	3112.154		-44.44514	
24.69461	3109.843		-44.41722	
24.74857	3107.539		-44.38994	
24.80252	3105.246		-44.36359	
24.85647	3102.962		-44.33845	
24.91042	3100.683		-44.31477	
24.96437	3098.392		-44.29275	
25.01832	3096.075		-44.27257	
25.07228	3093.721		-44.25434	
25.12623	3091.327		-44.23814	
25.18018	3088.9		-44.22402	
25.23413	3086.46		-44.21199	
25.28808	3084.024		-44.20205	
25.34203	3081.601		-44.19415	
25.39599	3079.197		-44.18821	
25.44994	3076.813		-44.18411	
25.50389	3074.444		-44.18166	
25.55784	3072.084		-44.18059	
25.61179	3069.73		-44.18064	
25.66574	3067.379		-44.18148	
25.7197	3065.03		-44.18278	
25.77365	3062.673		-44.18419	
25.8276	3060.297		-44.18533	
25.88155	3057.89		-44.18581	
25.9355	3055.45		-44.18527	
25.98945	3052.986		-44.18336	
26.04341	3050.513		-44.17979	
26.09736	3048.048		-44.17432	
26.15131	3045.605		-44.16678	
26.20526	3043.189		-44.15703	
26.25921	3040.794		-44.14497	
26.31316	3038.415		-44.13055	
26.36712	3036.055		-44.11373	
26.42107	3033.719		-44.09452	
26.47502	3031.404		-44.07297	
26.52897	3029.105		-44.04913	
26.58292	3026.811		-44.02303	
26.63687	3024.507		-43.99467	
26.69082	3022.178		-43.96407	
26.74478	3019.812		-43.9312	
26.79873	3017.406		-43.89605	
26.85268	3014.967		-43.85863	
26.90663	3012.506		-43.81895	
26.96058	3010.034		-43.77705	
27.01454	3007.561		-43.73301	
27.06849	3005.089		-43.68692	
27.12244	3002.621		-43.63893	
27.17639	3000.164		-43.58918	
27.23034	2997.723		-43.53787	
27.28429	2995.304		-43.48519	
27.33825	2992.902		-43.43136	
27.3922	2990.509		-43.37658	
27.44615	2988.117		-43.32106	
27.5001	2985.719		-43.26499	
27.55405	2983.305		-43.20856	
27.608	2980.873		-43.15197	
27.66195	2978.432		-43.09544	
27.71591	2975.99		-43.03918	
27.76986	2973.557		-42.98343	
27.82381	2971.146		-42.92836	
27.87776	2968.766		-42.87413	
27.93171	2966.429		-42.8208	
27.98566	2964.139		-42.76844	
28.03962	2961.894		-42.71706	
28.09357	2959.691		-42.66671	
28.14752	2957.526		-42.6174	
28.20147	2955.384		-42.56919	
28.25542	2953.25		-42.52212	
28.30937	2951.11		-42.47626	
28.36333	2948.957		-42.43169	
28.41728	2946.786		-42.38853	
28.47123	2944.597		-42.34691	
28.52518	2942.393		-42.30699	
28.57913	2940.174		-42.26894	
28.63308	2937.946		-42.23288	
28.68704	2935.712		-42.19896	
28.74099	2933.477		-42.16726	
28.79494	2931.245		-42.13788	
28.84889	2929.014		-42.11086	
28.90284	2926.785		-42.0862	
28.95679	2924.553		-42.06387	
29.01075	2922.31		-42.0438	
29.0647	2920.055		-42.02588	
29.11865	2917.788		-42.01001	
29.1726	2915.515		-41.99607	
29.22655	2913.241		-41.98396	
29.2805	2910.975		-41.97358	
29.33446	2908.722		-41.96481	
29.38841	2906.489		-41.9576	
29.44236	2904.28		-41.95189	
29.49631	2902.097		-41.94765	
29.55026	2899.935		-41.94488	
29.60421	2897.785		-41.94361	
29.65816	2895.641		-41.94391	
29.71212	2893.492		-41.9459	
29.76607	2891.33		-41.94968	
29.82002	2889.15		-41.95538	
29.87397	2886.951		-41.96302	
29.92792	2884.73		-41.97259	
29.98187	2882.483		-41.984	
30.03583	2880.21		-41.99711	
30.08978	2877.914		-42.01172	
30.14373	2875.598		-42.0276	
30.19768	2873.26		-42.04445	
30.25163	2870.904		-42.06196	
30.30559	2868.53		-42.07976	
30.35954	2866.141		-42.09749	
30.41349	2863.747		-42.11483	
30.46744	2861.359		-42.13145	
30.52139	2858.983		-42.14713	
30.57534	2856.617		-42.16162	
30.6293	2854.259		-42.17476	
30.68325	2851.903		-42.18642	
30.7372	2849.553		-42.19651	
30.79115	2847.21		-42.20497	
30.8451	2844.874		-42.21178	
30.89905	2842.542		-42.21691	
30.953	2840.21		-42.22031	
31.00696	2837.874		-42.22192	
31.06091	2835.537		-42.22163	
31.11486	2833.206		-42.21935	
31.16881	2830.888		-42.21494	
31.22276	2828.594		-42.20828	
31.27671	2826.322		-42.19925	
31.33067	2824.073		-42.18775	
31.38462	2821.851		-42.17367	
31.43857	2819.658		-42.15694	
31.49252	2817.499		-42.13754	
31.54647	2815.369		-42.11553	
31.60042	2813.254		-42.09104	
31.65438	2811.13		-42.06429	
31.70833	2808.972		-42.03555	
31.76228	2806.766		-42.00514	
31.81623	2804.51		-41.97341	
31.87018	2802.208		-41.94072	
31.92413	2799.871		-41.90743	
31.97809	2797.508		-41.87387	
32.03204	2795.132		-41.8403	
32.08599	2792.756		-41.80695	
32.13994	2790.395		-41.77397	
32.19389	2788.054		-41.74146	
32.24784	2785.736		-41.70944	
32.3018	2783.432		-41.67787	
32.35575	2781.131		-41.64666	
32.4097	2778.832		-41.61567	
32.46365	2776.536		-41.58474	
32.5176	2774.247		-41.55368	
32.57155	2771.966		-41.5223	
32.6255	2769.689		-41.4904	
32.67946	2767.418		-41.45781	
32.73341	2765.158		-41.42435	
32.78736	2762.916		-41.38992	
32.84131	2760.698		-41.35439	
32.89526	2758.509		-41.31771	
32.94921	2756.347		-41.2799	
33.00317	2754.207		-41.24096	
33.05712	2752.085		-41.2009	
33.11107	2749.979		-41.15973	
33.16502	2747.885		-41.1174	
33.21898	2745.8		-41.07389	
33.27293	2743.712		-41.02916	
33.32688	2741.606		-40.98313	
33.38083	2739.471		-40.93575	
33.43478	2737.306		-40.88693	
33.48873	2735.119		-40.83658	
33.54268	2732.922		-40.78466	
33.59663	2730.723		-40.73119	
33.65059	2728.527		-40.67629	
33.70454	2726.332		-40.62014	
33.75849	2724.133		-40.563	
33.81244	2721.916		-40.5052	
33.86639	2719.673		-40.44712	
33.92035	2717.4		-40.38926	
33.9743	2715.103		-40.3321	
34.02825	2712.791		-40.27618	
34.0822	2710.471		-40.22202	
34.13615	2708.148		-40.17009	
34.1901	2705.82		-40.12085	
34.24405	2703.496		-40.07467	
34.29801	2701.188		-40.03188	
34.35196	2698.909		-39.99275	
34.40591	2696.664		-39.95745	
34.45986	2694.457		-39.92604	
34.51381	2692.289		-39.89846	
34.56776	2690.161		-39.87458	
34.62172	2688.067		-39.85415	
34.67567	2685.997		-39.83683	
34.72962	2683.939		-39.82225	
34.78357	2681.886		-39.80993	
34.83752	2679.835		-39.79939	
34.89148	2677.786		-39.79016	
34.94543	2675.735		-39.78178	
34.99938	2673.674		-39.77383	
35.05333	2671.597		-39.76593	
35.10728	2669.505		-39.75772	
35.16123	2667.404		-39.74887	
35.21518	2665.302		-39.73907	
35.26913	2663.206		-39.72805	
35.32309	2661.123		-39.71553	
35.37704	2659.061		-39.70125	
35.43099	2657.022		-39.68495	
35.48494	2654.999		-39.66639	
35.53889	2652.98		-39.64536	
35.59285	2650.956		-39.62168	
35.6468	2648.925		-39.59522	
35.70075	2646.891		-39.56588	
35.7547	2644.854		-39.53361	
35.80865	2642.809		-39.49843	
35.8626	2640.749		-39.46042	
35.91655	2638.668		-39.41978	
35.97051	2636.565		-39.37678	
36.02446	2634.452		-39.33183	
36.07841	2632.337		-39.28539	
36.13236	2630.22		-39.23798	
36.18631	2628.098		-39.19019	
36.24026	2625.972		-39.14258	
36.29422	2623.843		-39.09577	
36.34817	2621.705		-39.05032	
36.40212	2619.551		-39.00678	
36.45607	2617.374		-38.96568	
36.51003	2615.174		-38.92744	
36.56398	2612.952		-38.89243	
36.61793	2610.709		-38.86087	
36.67188	2608.44		-38.83289	
36.72583	2606.142		-38.8085	
36.77978	2603.818		-38.78762	
36.83373	2601.472		-38.7701	
36.88768	2599.114		-38.75571	
36.94164	2596.755		-38.74421	
36.99559	2594.407		-38.73527	
37.04954	2592.088		-38.72857	
37.10349	2589.811		-38.72377	
37.15744	2587.58		-38.72052	
37.2114	2585.397		-38.71852	
37.26535	2583.258		-38.71745	
37.3193	2581.162		-38.71706	
37.37325	2579.108		-38.71716	
37.4272	2577.092		-38.71756	
37.48115	2575.112		-38.71816	
37.5351	2573.167		-38.71886	
37.58906	2571.255		-38.71956	
37.64301	2569.368		-38.72019	
37.69696	2567.497		-38.72063	
37.75091	2565.636		-38.72075	
37.80486	2563.786		-38.7204	
37.85881	2561.948		-38.71947	
37.91277	2560.119		-38.71786	
37.96672	2558.3		-38.71548	
38.02067	2556.484		-38.71227	
38.07462	2554.659		-38.70819	
38.12857	2552.814		-38.70326	
38.18253	2550.943		-38.69753	
38.23648	2549.042		-38.6911	
38.29043	2547.113		-38.68413	
38.34438	2545.156		-38.67679	
38.39833	2543.166		-38.66931	
38.45228	2541.135		-38.66195	
38.50623	2539.058		-38.65498	
38.56018	2536.938		-38.64869	
38.61414	2534.776		-38.64333	
38.66809	2532.576		-38.63911	
38.72204	2530.349		-38.63616	
38.77599	2528.105		-38.63458	
38.82994	2525.856		-38.63442	
38.8839	2523.612		-38.63565	
38.93785	2521.375		-38.6382	
38.9918	2519.147		-38.64189	
39.04575	2516.933		-38.64652	
39.0997	2514.734		-38.65181	
39.15365	2512.551		-38.65744	
39.2076	2510.383		-38.66307	
39.26156	2508.231		-38.66838	
39.31551	2506.096		-38.67302	
39.36946	2503.971		-38.67675	
39.42341	2501.851		-38.67931	
39.47736	2499.732		-38.68052	
39.53131	2497.613		-38.68023	
39.58527	2495.497		-38.67833	
39.63922	2493.387		-38.67473	
39.69317	2491.283		-38.66936	
39.74712	2489.178		-38.66217	
39.80107	2487.067		-38.65312	
39.85503	2484.946		-38.64218	
39.90898	2482.806		-38.62931	
39.96293	2480.648		-38.61443	
40.01688	2478.47		-38.59741	
40.07083	2476.27		-38.57809	
40.12478	2474.046		-38.55623	
40.17873	2471.805		-38.5316	
40.23269	2469.561		-38.50397	
40.28664	2467.328		-38.47316	
40.34059	2465.118		-38.43904	
40.39454	2462.936		-38.40158	
40.44849	2460.784		-38.36077	
40.50245	2458.666		-38.3167	
40.5564	2456.586		-38.26954	
40.61035	2454.542		-38.2195	
40.6643	2452.53		-38.16685	
40.71825	2450.545		-38.11193	
40.7722	2448.577		-38.05513	
40.82615	2446.621		-37.99684	
40.88011	2444.669		-37.93745	
40.93406	2442.717		-37.87735	
40.98801	2440.767		-37.81686	
41.04196	2438.824		-37.75626	
41.09591	2436.895		-37.69582	
41.14986	2434.981		-37.6357	
41.20382	2433.087		-37.57608	
41.25777	2431.219		-37.51706	
41.31172	2429.378		-37.45874	
41.36567	2427.553		-37.40123	
41.41962	2425.734		-37.3446	
41.47358	2423.905		-37.28897	
41.52753	2422.049		-37.23447	
41.58148	2420.152		-37.18127	
41.63543	2418.207		-37.12955	
41.68938	2416.205		-37.07958	
41.74333	2414.147		-37.03161	
41.79728	2412.043		-36.98594	
41.85123	2409.907		-36.94283	
41.90519	2407.752		-36.90254	
41.95914	2405.592		-36.86524	
42.01309	2403.435		-36.83108	
42.06704	2401.29		-36.80012	
42.12099	2399.164		-36.77236	
42.17495	2397.063		-36.7477	
42.2289	2394.99		-36.72596	
42.28285	2392.946		-36.70687	
42.3368	2390.928		-36.69011	
42.39075	2388.932		-36.67529	
42.4447	2386.952		-36.66196	
42.49865	2384.985		-36.64973	
42.55261	2383.028		-36.63815	
42.60656	2381.082		-36.62683	
42.66051	2379.156		-36.61546	
42.71446	2377.256		-36.60376	
42.76841	2375.379		-36.59156	
42.82236	2373.521		-36.57872	
42.87632	2371.675		-36.56514	
42.93027	2369.837		-36.55075	
42.98422	2368		-36.53552	
43.03817	2366.156		-36.51941	
43.09212	2364.293		-36.5024	
43.14608	2362.406		-36.48446	
43.20003	2360.492		-36.46558	
43.25398	2358.553		-36.44571	
43.30793	2356.584		-36.42484	
43.36188	2354.589		-36.4029	
43.41583	2352.571		-36.37984	
43.46978	2350.534		-36.3556	
43.52374	2348.482		-36.33012	
43.57769	2346.422		-36.30338	
43.63164	2344.365		-36.27541	
43.68559	2342.316		-36.24628	
43.73954	2340.275		-36.21615	
43.7935	2338.245		-36.18516	
43.84745	2336.226		-36.15352	
43.9014	2334.213		-36.12142	
43.95535	2332.201		-36.08908	
44.0093	2330.188		-36.05677	
44.06325	2328.175		-36.02475	
44.1172	2326.166		-35.99329	
44.17115	2324.164		-35.9627	
44.22511	2322.176		-35.93319	
44.27906	2320.209		-35.90497	
44.33301	2318.268		-35.87814	
44.38696	2316.357		-35.85276	
44.44091	2314.475		-35.82884	
44.49487	2312.619		-35.8063	
44.54882	2310.781		-35.78502	
44.60277	2308.953		-35.76488	
44.65672	2307.127		-35.74572	
44.71067	2305.296		-35.72737	
44.76463	2303.451		-35.70965	
44.81858	2301.591		-35.69241	
44.87253	2299.715		-35.6755	
44.92648	2297.822		-35.65882	
44.98043	2295.904		-35.64234	
45.03438	2293.957		-35.62604	
45.08833	2291.982		-35.60996	
45.14228	2289.987		-35.59421	
45.19624	2287.981		-35.57887	
45.25019	2285.975		-35.56404	
45.30414	2283.981		-35.54979	
45.35809	2282.012		-35.53612	
45.41204	2280.075		-35.52303	
45.466	2278.17		-35.51045	
45.51995	2276.293		-35.49825	
45.5739	2274.438		-35.48627	
45.62785	2272.599		-35.47433	
45.6818	2270.767		-35.46225	
45.73575	2268.934		-35.44983	
45.7897	2267.09		-35.43687	
45.84366	2265.229		-35.42318	
45.89761	2263.35		-35.4086	
45.95156	2261.457		-35.39298	
46.00551	2259.566		-35.37624	
46.05946	2257.687		-35.35837	
46.11341	2255.829		-35.33941	
46.16737	2253.99		-35.3195	
46.22132	2252.163		-35.29879	
46.27527	2250.339		-35.27753	
46.32922	2248.511		-35.256	
46.38317	2246.678		-35.23447	
46.43713	2244.842		-35.21329	
46.49108	2242.999		-35.19276	
46.54503	2241.143		-35.17319	
46.59898	2239.264		-35.15485	
46.65293	2237.35		-35.13794	
46.70688	2235.393		-35.12261	
46.76083	2233.39		-35.10897	
46.81479	2231.347		-35.09708	
46.86874	2229.28		-35.08699	
46.92269	2227.202		-35.07874	
46.97664	2225.127		-35.07238	
47.03059	2223.065		-35.06795	
47.08455	2221.03		-35.06546	
47.1385	2219.026		-35.06493	
47.19245	2217.052		-35.06631	
47.2464	2215.11		-35.06958	
47.30035	2213.196		-35.07465	
47.3543	2211.303		-35.08141	
47.40825	2209.419		-35.08975	
47.4622	2207.533		-35.09948	
47.51616	2205.635		-35.11037	
47.57011	2203.727		-35.12215	
47.62406	2201.815		-35.13451	
47.67801	2199.906		-35.14709	
47.73196	2198.006		-35.15951	
47.78592	2196.128		-35.17135	
47.83987	2194.279		-35.18219	
47.89382	2192.458		-35.19163	
47.94777	2190.665		-35.19929	
48.00172	2188.897		-35.20481	
48.05568	2187.159		-35.20791	
48.10963	2185.448		-35.20835	
48.16358	2183.757		-35.20598	
48.21753	2182.071		-35.20071	
48.27148	2180.372		-35.19255	
48.32543	2178.647		-35.18157	
48.37938	2176.888		-35.16794	
48.43333	2175.09		-35.15191	
48.48729	2173.256		-35.1338	
48.54124	2171.39		-35.114	
48.59519	2169.497		-35.0929	
48.64914	2167.585		-35.07087	
48.70309	2165.663		-35.04822	
48.75705	2163.736		-35.02523	
48.811	2161.805		-35.00218	
48.86495	2159.868		-34.9793	
48.9189	2157.921		-34.95682	
48.97285	2155.961		-34.93492	
49.0268	2153.984		-34.9137	
49.08075	2151.983		-34.89323	
49.13471	2149.954		-34.87347	
49.18866	2147.904		-34.85437	
49.24261	2145.841		-34.83582	
49.29656	2143.775		-34.81768	
49.35051	2141.715		-34.79981	
49.40446	2139.664		-34.78204	
49.45842	2137.624		-34.76421	
49.51237	2135.601		-34.74613	
49.56632	2133.602		-34.72766	
49.62027	2131.628		-34.70863	
49.67422	2129.68		-34.68885	
49.72818	2127.761		-34.66813	
49.78213	2125.874		-34.64626	
49.83608	2124.018		-34.623	
49.89003	2122.183		-34.59816	
49.94398	2120.363		-34.5715	
49.99793	2118.553		-34.54286	
50.05188	2116.754		-34.51205	
50.10583	2114.961		-34.47893	
50.15979	2113.174		-34.44338	
50.21374	2111.394		-34.40535	
50.26769	2109.622		-34.36484	
50.32164	2107.859		-34.32193	
50.3756	2106.106		-34.27677	
50.42955	2104.357		-34.22958	
50.4835	2102.604		-34.18064	
50.53745	2100.838		-34.13031	
50.5914	2099.052		-34.079	
50.64535	2097.243		-34.02714	
50.6993	2095.407		-33.97513	
50.75325	2093.545		-33.92338	
50.80721	2091.66		-33.87226	
50.86116	2089.758		-33.82217	
50.91511	2087.846		-33.77347	
50.96906	2085.933		-33.72652	
51.02301	2084.02		-33.68161	
51.07697	2082.11		-33.63901	
51.13092	2080.211		-33.59895	
51.18487	2078.336		-33.5616	
51.23882	2076.502		-33.5271	
51.29277	2074.722		-33.49552	
51.34673	2072.993		-33.46689	
51.40068	2071.305		-33.44117	
51.45463	2069.639		-33.41832	
51.50858	2067.981		-33.39824	
51.56253	2066.315		-33.38086	
51.61648	2064.628		-33.36604	
51.67043	2062.913		-33.35366	
51.72438	2061.169		-33.34356	
51.77834	2059.4		-33.33555	
51.83229	2057.615		-33.32943	
51.88624	2055.827		-33.325	
51.94019	2054.049		-33.32201	
51.99414	2052.288		-33.32024	
52.0481	2050.54		-33.31946	
52.10205	2048.8		-33.31942	
52.156	2047.063		-33.31987	
52.20995	2045.324		-33.32058	
52.2639	2043.582		-33.32134	
52.31785	2041.836		-33.32195	
52.3718	2040.088		-33.32217	
52.42576	2038.332		-33.32185	
52.47971	2036.558		-33.3208	
52.53366	2034.755		-33.31894	
52.58761	2032.919		-33.31618	
52.64156	2031.054		-33.31251	
52.69551	2029.174		-33.3079	
52.74947	2027.289		-33.30234	
52.80342	2025.404		-33.29585	
52.85737	2023.53		-33.28846	
52.91132	2021.676		-33.28019	
52.96527	2019.848		-33.27107	
53.01923	2018.048		-33.26115	
53.07318	2016.268		-33.2505	
53.12713	2014.493		-33.23915	
53.18108	2012.714		-33.2272	
53.23503	2010.926		-33.21471	
53.28898	2009.133		-33.20179	
53.34293	2007.334		-33.1885	
53.39688	2005.527		-33.17492	
53.45084	2003.709		-33.16112	
53.50479	2001.881		-33.14715	
53.55874	2000.042		-33.13309	
53.61269	1998.192		-33.11904	
53.66665	1996.331		-33.10512	
53.7206	1994.453		-33.09145	
53.77455	1992.561		-33.0782	
53.8285	1990.662		-33.06548	
53.88245	1988.769		-33.05342	
53.9364	1986.896		-33.04208	
53.99035	1985.05		-33.03154	
54.0443	1983.231		-33.02182	
54.09826	1981.437		-33.01296	
54.15221	1979.66		-33.00497	
54.20616	1977.895		-32.99783	
54.26011	1976.14		-32.99154	
54.31406	1974.394		-32.98607	
54.36802	1972.652		-32.98138	
54.42197	1970.912		-32.97746	
54.47592	1969.167		-32.97429	
54.52987	1967.413		-32.97185	
54.58382	1965.649		-32.97014	
54.63778	1963.886		-32.96915	
54.69173	1962.136		-32.96891	
54.74568	1960.401		-32.96941	
54.79963	1958.682		-32.97065	
54.85358	1956.982		-32.97257	
54.90753	1955.305		-32.9751	
54.96148	1953.65		-32.97809	
55.01543	1952.009		-32.98135	
55.06939	1950.371		-32.98468	
55.12334	1948.721		-32.98782	
55.17729	1947.051		-32.99056	
55.23124	1945.361		-32.99266	
55.28519	1943.654		-32.9939	
55.33915	1941.936		-32.99411	
55.3931	1940.209		-32.9931	
55.44705	1938.478		-32.99078	
55.501	1936.742		-32.98707	
55.55495	1935.005		-32.98196	
55.6089	1933.27		-32.97548	
55.66285	1931.533		-32.96769	
55.71681	1929.788		-32.95869	
55.77076	1928.034		-32.94857	
55.82471	1926.264		-32.93744	
55.87866	1924.473		-32.92537	
55.93261	1922.661		-32.91236	
55.98656	1920.828		-32.8984	
56.04052	1918.978		-32.88345	
56.09447	1917.113		-32.86745	
56.14842	1915.228		-32.85035	
56.20237	1913.323		-32.83206	
56.25632	1911.404		-32.81252	
56.31028	1909.483		-32.79168	
56.36423	1907.57		-32.76954	
56.41818	1905.667		-32.7461	
56.47213	1903.782		-32.72141	
56.52608	1901.916		-32.69549	
56.58003	1900.066		-32.66841	
56.63398	1898.228		-32.64024	
56.68793	1896.394		-32.61106	
56.74189	1894.557		-32.58098	
56.79584	1892.714		-32.55005	
56.84979	1890.868		-32.5183	
56.90374	1889.025		-32.48571	
56.9577	1887.193		-32.45224	
57.01165	1885.373		-32.41781	
57.0656	1883.566		-32.38233	
57.11955	1881.763		-32.3457	
57.1735	1879.963		-32.30784	
57.22745	1878.166		-32.2687	
57.2814	1876.375		-32.22822	
57.33535	1874.599		-32.18638	
57.38931	1872.846		-32.14321	
57.44326	1871.119		-32.09878	
57.49721	1869.422		-32.05318	
57.55116	1867.757		-32.00651	
57.60511	1866.119		-31.9589	
57.65907	1864.502		-31.91051	
57.71302	1862.896		-31.8615	
57.76697	1861.294		-31.81209	
57.82092	1859.684		-31.7625	
57.87487	1858.059		-31.71296	
57.92883	1856.414		-31.66364	
57.98278	1854.751		-31.61473	
58.03673	1853.079		-31.56638	
58.09068	1851.406		-31.51876	
58.14463	1849.733		-31.47202	
58.19858	1848.072		-31.4263	
58.25253	1846.439		-31.38173	
58.30648	1844.841		-31.33846	
58.36044	1843.273		-31.29663	
58.41439	1841.729		-31.25641	
58.46834	1840.206		-31.21794	
58.52229	1838.692		-31.18138	
58.57624	1837.169		-31.14685	
58.6302	1835.621		-31.11446	
58.68415	1834.03		-31.08424	
58.7381	1832.394		-31.05618	
58.79205	1830.713		-31.03024	
58.846	1828.99		-31.00628	
58.89995	1827.23		-30.98417	
58.9539	1825.443		-30.96372	
59.00785	1823.646		-30.94471	
59.06181	1821.857		-30.92692	
59.11576	1820.093		-30.91011	
59.16971	1818.361		-30.89401	
59.22366	1816.659		-30.87834	
59.27761	1814.987		-30.8628	
59.33157	1813.342		-30.8471	
59.38552	1811.721		-30.83092	
59.43947	1810.113		-30.81394	
59.49342	1808.503		-30.79585	
59.54737	1806.875		-30.77627	
59.60133	1805.222		-30.75485	
59.65528	1803.54		-30.73124	
59.70923	1801.828		-30.70514	
59.76318	1800.09		-30.67635	
59.81713	1798.332		-30.64468	
59.87108	1796.566		-30.61005	
59.92503	1794.806		-30.57238	
59.97898	1793.067		-30.53167	
60.03294	1791.356		-30.48794	
60.08689	1789.674		-30.44126	
60.14084	1788.021		-30.39173	
60.19479	1786.394		-30.33949	
60.24874	1784.785		-30.2847	
60.3027	1783.177		-30.22757	
60.35665	1781.554		-30.16831	
60.4106	1779.912		-30.10714	
60.46455	1778.252		-30.04432	
60.5185	1776.578		-29.9801	
60.57245	1774.894		-29.91475	
60.6264	1773.198		-29.84851	
60.68036	1771.49		-29.78161	
60.73431	1769.773		-29.71428	
60.78826	1768.054		-29.64672	
60.84221	1766.336		-29.57918	
60.89616	1764.626		-29.51184	
60.95012	1762.933		-29.44486	
61.00407	1761.263		-29.37838	
61.05802	1759.622		-29.31251	
61.11197	1758.007		-29.24728	
61.16592	1756.415		-29.18268	
61.21988	1754.841		-29.11864	
61.27383	1753.283		-29.05507	
61.32778	1751.744		-28.99183	
61.38173	1750.226		-28.92875	
61.43568	1748.73		-28.86562	
61.48963	1747.248		-28.80222	
61.54358	1745.774		-28.73829	
61.59753	1744.305		-28.67361	
61.65149	1742.843		-28.60791	
61.70544	1741.388		-28.54094	
61.75939	1739.945		-28.4725	
61.81334	1738.515		-28.40241	
61.86729	1737.097		-28.33055	
61.92125	1735.687		-28.25682	
61.9752	1734.279		-28.18113	
62.02915	1732.872		-28.10344	
62.0831	1731.467		-28.0237	
62.13705	1730.069		-27.94192	
62.191	1728.684		-27.85809	
62.24495	1727.308		-27.77219	
62.2989	1725.931		-27.68419	
62.35286	1724.54		-27.59402	
62.40681	1723.128		-27.50162	
62.46076	1721.692		-27.40685	
62.51471	1720.23		-27.3096	
62.56866	1718.744		-27.20972	
62.62262	1717.231		-27.10708	
62.67657	1715.693		-27.00154	
62.73052	1714.132		-26.89294	
62.78447	1712.553		-26.78116	
62.83842	1710.96		-26.66604	
62.89238	1709.358		-26.5474	
62.94633	1707.759		-26.42504	
63.00028	1706.168		-26.29868	
63.05423	1704.587		-26.168	
63.10818	1703.018		-26.0326	
63.16213	1701.458		-25.89202	
63.21608	1699.911		-25.74573	
63.27003	1698.377		-25.59316	
63.32399	1696.861		-25.43366	
63.37794	1695.358		-25.26657	
63.43189	1693.867		-25.0912	
63.48584	1692.388		-24.90685	
63.53979	1690.923		-24.7128	
63.59375	1689.473		-24.50841	
63.6477	1688.033		-24.29303	
63.70165	1686.608		-24.06609	
63.7556	1685.205		-23.82706	
63.80955	1683.825		-23.57546	
63.8635	1682.472		-23.31088	
63.91745	1681.147		-23.03296	
63.97141	1679.851		-22.74131	
64.02536	1678.581		-22.43565	
64.07931	1677.337		-22.1157	
64.13326	1676.114		-21.78113	
64.18721	1674.91		-21.43175	
64.24117	1673.72		-21.06724	
64.29512	1672.535		-20.68737	
64.34907	1671.348		-20.29193	
64.40302	1670.157		-19.88048	
64.45697	1668.959		-19.45287	
64.51093	1667.753		-19.00869	
64.56487	1666.54		-18.54778	
64.61883	1665.324		-18.06976	
64.67278	1664.109		-17.57445	
64.72673	1662.904		-17.06145	
64.78069	1661.721		-16.53043	
64.83463	1660.573		-15.98115	
64.88859	1659.471		-15.41301	
64.94254	1658.426		-14.82574	
64.99649	1657.441		-14.21868	
65.05044	1656.518		-13.59141	
65.10439	1655.65		-12.94317	
65.15834	1654.828		-12.27339	
65.2123	1654.042		-11.58114	
65.26624	1653.292		-10.86575	
65.3202	1652.572		-10.12613	
65.37415	1651.872		-9.361399	
65.4281	1651.188		-8.570724	
65.48206	1650.526		-7.752837	
65.536	1649.902		-6.906951	
65.58996	1649.325		-6.03185	
65.64391	1648.802		-5.126721	
65.69786	1648.338		-4.190381	
65.75181	1647.934		-3.222079	
65.80576	1647.592		-2.220665	
65.85971	1647.311		-1.185433	
65.91367	1647.087		-0.115238	
65.96762	1646.914		0.990741	
66.02157	1646.787		2.133137	
66.07552	1646.698		3.313249	
66.12947	1646.637		4.531551	
66.18343	1646.592		5.789214	
66.23737	1646.562		7.086819	
66.29133	1646.548		8.425523	
66.34528	1646.561		9.805908	
66.39923	1646.616		11.22917	
66.45319	1646.729		12.69608	
66.50713	1646.915		14.20721	
66.56109	1647.186		15.76392	
66.61504	1647.553		17.36663	
66.66899	1648.019		19.01665	
66.72294	1648.584		20.71441	
66.77689	1649.247		22.46133	
66.83084	1650.002		24.25786	
66.8848	1650.845		26.10542	
66.93874	1651.772		28.00464	
66.9927	1652.779		29.95689	
67.04665	1653.863		31.96315	
67.1006	1655.024		34.02398	
67.15456	1656.268		36.14127	
67.2085	1657.606		38.31533	
67.26246	1659.054		40.54792	
67.31641	1660.629		42.8395	
67.37036	1662.337		45.19172	
67.42431	1664.183		47.60512	
67.47826	1666.175		50.08113	
67.53222	1668.321		52.62063	
67.58617	1670.627		55.22393	
67.64012	1673.096		57.89291	
67.69407	1675.723		60.62751	
67.74802	1678.506		63.42937	
67.80197	1681.439		66.29843	
67.85593	1684.52		69.23621	
67.90987	1687.74		72.24245	
67.96383	1691.099		75.31844	
68.01778	1694.598		78.46391	
68.07173	1698.244		81.67971	
68.12569	1702.045		84.96586	
68.17963	1706.011		88.32166	
68.23359	1710.151		91.7483	
68.28754	1714.471		95.24448	
68.34149	1718.978		98.81107	
68.39544	1723.68		102.4468	
68.44939	1728.583		106.1524	
68.50334	1733.686		109.9263	
68.5573	1738.994		113.7692	
68.61124	1744.504		117.6796	
68.6652	1750.217		121.6577	
68.71915	1756.127		125.7028	
68.7731	1762.238		129.8132	
68.82706	1768.561		133.9896	
68.881	1775.109		138.2298	
68.93496	1781.896		142.5343	
68.98891	1788.934		146.9009	
69.04286	1796.234		151.3297	
69.09681	1803.799		155.8187	
69.15076	1811.63		160.3678	
69.20472	1819.726		164.9754	
69.25867	1828.092		169.6394	
69.31262	1836.734		174.3601	
69.36657	1845.648		179.1346	
69.42052	1854.838		183.9629	
69.47447	1864.302		188.842	
69.52843	1874.049		193.7717	
69.58237	1884.078		198.7486	
69.63633	1894.389		203.7719	
69.69028	1904.978		208.8381	
69.74423	1915.853		213.9457	
69.79819	1927.022		219.0913	
69.85213	1938.498		224.2705	
69.90609	1950.299		229.4811	
69.96004	1962.422		234.7174	
70.01399	1974.869		239.9761	
70.06794	1987.634		245.2506	
70.12189	2000.719		250.5365	
70.17584	2014.131		255.8262	
70.2298	2027.871		261.1142	
70.28375	2041.938		266.3925	
70.3377	2056.324		271.6525	
70.39165	2071.035		276.8871	
70.4456	2086.066		282.0862	
70.49956	2101.418		287.2417	
70.5535	2117.089		292.3425	
70.60746	2133.084		297.3797	
70.66141	2149.399		302.3415	
70.71536	2166.04		307.2184	
70.76931	2183.001		311.9981	
70.82327	2200.292		316.6707	
70.87722	2217.91		321.2242	
70.93117	2235.859		325.6466	
70.98512	2254.145		329.9275	
71.03907	2272.764		334.0547	
71.09303	2291.716		338.0179	
71.14697	2310.986		341.8051	
71.20093	2330.571		345.4067	
71.25488	2350.463		348.8113	
71.30883	2370.662		352.0101	
71.36278	2391.153		354.9923	
71.41673	2411.935		357.7507	
71.47069	2433.01		360.2758	
71.52464	2454.384		362.5605	
71.57859	2476.073		364.5977	
71.63254	2498.07		366.3813	
71.68649	2520.383		367.9061	
71.74044	2543.006		369.1671	
71.7944	2565.947		370.1609	
71.84834	2589.204		370.8832	
71.9023	2612.781		371.3329	
71.95625	2636.658		371.5068	
72.0102	2660.795		371.4053	
72.06416	2685.156		371.0269	
72.1181	2709.689		370.3731	
72.17206	2734.354		369.4445	
72.22601	2759.092		368.243	
72.27996	2783.863		366.7707	
72.33391	2808.612		365.0309	
72.38786	2833.304		363.0267	
72.44181	2857.891		360.7617	
72.49577	2882.342		358.2411	
72.54972	2906.616		355.4686	
72.60367	2930.673		352.4514	
72.65762	2954.48		349.1932	
72.71157	2977.98		345.7021	
72.76553	3001.126		341.9836	
72.81947	3023.852		338.0456	
72.87343	3046.109		333.8951	
72.92738	3067.842		329.5401	
72.98133	3089.009		324.9889	
73.03529	3109.567		320.2498	
73.08923	3129.479		315.3335	
73.14319	3148.726		310.2474	
73.19714	3167.296		305.0034	
73.25109	3185.204		299.6099	
73.30504	3202.46		294.0791	
73.35899	3219.086		288.42	
73.41294	3235.091		282.6455	
73.4669	3250.499		276.7651	
73.52084	3265.317		270.7918	
73.5748	3279.567		264.7359	
73.62875	3293.252		258.6101	
73.6827	3306.374		252.4275	
73.73666	3318.93		246.1987	
73.7906	3330.922		239.938	
73.84456	3342.363		233.6562	
73.89851	3353.261		227.3674	
73.95246	3363.63		221.0825	
74.00641	3373.488		214.8154	
74.06036	3382.855		208.5764	
74.11431	3391.745		202.3795	
74.16827	3400.191		196.2338	
74.22222	3408.227		190.152	
74.27617	3415.884		184.145	
74.33012	3423.183		178.2213	
74.38407	3430.132		172.3921	
74.43803	3436.738		166.6646	
74.49197	3443.012		161.0486	
74.54593	3448.981		155.5498	
74.59988	3454.667		150.1772	
74.65383	3460.093		144.9347	
74.70779	3465.275		139.829	
74.76173	3470.228		134.8646	
74.81569	3474.966		130.0445	
74.86964	3479.508		125.3726	
74.92359	3483.877		120.8497	
74.97754	3488.094		116.4785	
75.03149	3492.183		112.2584	
75.08544	3496.164		108.1903	
75.1394	3500.057		104.2721	
75.19334	3503.88		100.504	
75.2473	3507.638		96.88201	
75.30125	3511.333		93.40463	
75.3552	3514.964		90.06849	
75.40916	3518.531		86.86947	
75.4631	3522.03		83.80389	
75.51706	3525.461		80.86648	
75.57101	3528.831		78.05326	
75.62496	3532.145		75.35828	
75.67891	3535.403		72.7774	
75.73286	3538.605		70.30417	
75.78682	3541.75		67.93399	
75.84077	3544.839		65.66147	
75.89472	3547.874		63.48104	
75.94867	3550.861		61.38797	
76.00262	3553.798		59.37679	
76.05657	3556.675		57.44329	
76.11053	3559.486		55.58237	
76.16447	3562.237		53.79019	
76.21843	3564.954		52.06209	
76.27238	3567.655		50.39476	
76.32633	3570.352		48.78396	
76.38029	3573.034		47.22666	
76.43423	3575.679		45.71989	
76.48819	3578.273		44.26057	
76.54214	3580.794		42.8466	
76.59609	3583.228		41.47547	
76.65004	3585.566		40.14575	
76.70399	3587.812		38.85549	
76.75794	3589.975		37.60377	
76.8119	3592.06		36.38916	
76.86585	3594.072		35.21109	
76.9198	3596.013		34.06903	
76.97375	3597.887		32.9622	
77.0277	3599.688		31.89046	
77.08166	3601.417		30.8531	
77.1356	3603.08		29.85006	
77.18956	3604.681		28.88068	
77.24351	3606.221		27.94489	
77.29746	3607.7		27.04207	
77.35141	3609.109		26.17219	
77.40536	3610.436		25.33453	
77.45932	3611.662		24.52888	
77.51327	3612.773		23.75475	
77.56722	3613.76		23.01147	
77.62117	3614.625		22.2985	
77.67513	3615.367		21.61493	
77.72907	3615.99		20.96013	
77.78303	3616.509		20.33304	
77.83698	3616.947		19.73291	
77.89093	3617.326		19.15859	
77.94488	3617.653		18.60942	
77.99883	3617.926		18.08416	
78.05279	3618.137		17.58218	
78.10674	3618.273		17.1025	
78.16069	3618.328		16.6443	
78.21464	3618.298		16.20682	
78.26859	3618.187		15.78929	
78.32254	3618.009		15.39128	
78.3765	3617.784		15.01218	
78.43044	3617.545		14.65192	
78.4844	3617.327		14.31009	
78.53835	3617.166		13.98688	
78.5923	3617.085		13.68232	
78.64626	3617.103		13.39667	
78.7002	3617.221		13.13022	
78.75416	3617.435		12.88326	
78.80811	3617.735		12.65632	
78.86206	3618.12		12.44987	
78.91601	3618.591		12.26454	
78.96996	3619.149		12.10091	
79.02391	3619.799		11.95964	
79.07787	3620.543		11.84117	
79.13182	3621.381		11.74602	
79.18577	3622.311		11.67443	
79.23972	3623.327		11.62655	
79.29367	3624.425		11.60231	
79.34763	3625.604		11.60144	
79.40157	3626.862		11.62343	
79.45553	3628.185		11.66751	
79.50948	3629.553		11.73269	
79.56343	3630.946		11.81774	
79.61739	3632.331		11.92125	
79.67133	3633.673		12.04161	
79.72529	3634.944		12.17711	
79.77924	3636.123		12.32586	
79.83319	3637.203		12.48596	
79.88714	3638.187		12.65531	
79.94109	3639.08		12.83181	
79.99504	3639.888		13.01323	
80.049	3640.626		13.19737	
80.10294	3641.31		13.38194	
80.1569	3641.953		13.56478	
80.21085	3642.571		13.7437	
80.2648	3643.171		13.9167	
80.31876	3643.751		14.08196	
80.3727	3644.294		14.23778	
80.42666	3644.779		14.3828	
80.48061	3645.196		14.51583	
80.53456	3645.55		14.63601	
80.58851	3645.853		14.74269	
80.64246	3646.122		14.83554	
80.69641	3646.366		14.91439	
80.75037	3646.6		14.97939	
80.80432	3646.847		15.03088	
80.85827	3647.137		15.0694	
80.91222	3647.49		15.0957	
80.96617	3647.922		15.11064	
81.02013	3648.446		15.11525	
81.07407	3649.07		15.11062	
81.12803	3649.801		15.09796	
81.18198	3650.629		15.07853	
81.23593	3651.537		15.05361	
81.28989	3652.505		15.02447	
81.34383	3653.515		14.99232	
81.39779	3654.555		14.95828	
81.45174	3655.613		14.92333	
81.50569	3656.685		14.88826	
81.55964	3657.775		14.85367	
81.61359	3658.887		14.81992	
81.66754	3660.023		14.78718	
81.7215	3661.181		14.75537	
81.77544	3662.354		14.72415	
81.8294	3663.535		14.693	
81.88335	3664.715		14.66108	
81.9373	3665.884		14.62741	
81.99126	3667.027		14.59078	
82.0452	3668.136		14.54985	
82.09916	3669.207		14.50316	
82.15311	3670.236		14.44912	
82.20706	3671.227		14.38608	
82.26101	3672.188		14.31228	
82.31496	3673.122		14.22597	
82.36892	3674.03		14.12525	
82.42287	3674.913		14.0084	
82.47682	3675.77		13.87354	
82.53077	3676.595		13.71905	
82.58472	3677.394		13.54325	
82.63867	3678.17		13.34468	
82.69263	3678.918		13.12189	
82.74657	3679.634		12.8737	
82.80053	3680.323		12.59899	
82.85448	3680.994		12.29683	
82.90843	3681.649		11.96646	
82.96239	3682.294		11.60717	
83.01633	3682.936		11.21858	
83.07029	3683.582		10.8001	
83.12424	3684.241		10.35172	
83.17819	3684.918		9.873269	
83.23214	3685.617		9.365043	
83.28609	3686.339		8.827237	
83.34004	3687.078		8.260481	
83.394	3687.824		7.66526	
83.44794	3688.558		7.042415	
83.5019	3689.26		6.392716	
83.55585	3689.91		5.717036	
83.6098	3690.491		5.016498	
83.66376	3691.007		4.29174	
83.7177	3691.467		3.544009	
83.77166	3691.885		2.774039	
83.82561	3692.283		1.982993	
83.87956	3692.687		1.171575	
83.93351	3693.11		0.3408162	
83.98746	3693.56		-0.5085511	
84.04142	3694.026		-1.375656	
84.09537	3694.483		-2.259417	
84.14932	3694.902		-3.159313	
84.20327	3695.256		-4.074137	
84.25723	3695.522		-5.003278	
84.31117	3695.691		-5.945559	
84.36513	3695.756		-6.900326	
84.41908	3695.711		-7.866397	
84.47303	3695.553		-8.843129	
84.52698	3695.29		-9.829431	
84.58093	3694.932		-10.8247	
84.63489	3694.495		-11.82811	
84.68884	3693.99		-12.83883	
84.74279	3693.428		-13.85662	
84.79674	3692.817		-14.88064	
84.85069	3692.159		-15.91074	
84.90464	3691.45		-16.94622	
84.9586	3690.68		-17.98706	
85.01254	3689.834		-19.03267	
85.0665	3688.896		-20.08309	
85.12045	3687.847		-21.13789	
85.1744	3686.671		-22.19663	
85.22836	3685.354		-23.25921	
85.2823	3683.885		-24.32492	
85.33626	3682.269		-25.39355	
85.39021	3680.527		-26.46425	
85.44416	3678.682		-27.53666	
85.49811	3676.751		-28.60974	
85.55206	3674.75		-29.68301	
85.60601	3672.693		-30.75526	
85.65997	3670.597		-31.82589	
85.71392	3668.472		-32.89371	
85.76787	3666.312		-33.95754	
85.82182	3664.107		-35.01647	
85.87577	3661.849		-36.06905	
85.92973	3659.533		-37.1143	
85.98367	3657.169		-38.15067	
86.03763	3654.761		-39.17712	
86.09158	3652.313		-40.19204	
86.14553	3649.82		-41.19437	
86.19948	3647.283		-42.18244	
86.25343	3644.715		-43.15524	
86.30739	3642.131		-44.11123	
86.36134	3639.538		-45.04903	
86.41529	3636.935		-45.96762	
86.46924	3634.321		-46.86555	
86.52319	3631.7		-47.74192	
86.57714	3629.075		-48.59544	
86.6311	3626.449		-49.42542	
86.68504	3623.819		-50.23075	
86.739	3621.177		-51.01106	
86.79295	3618.511		-51.76561	
86.8469	3615.819		-52.49397	
86.90086	3613.095		-53.19608	
86.9548	3610.336		-53.87178	
87.00876	3607.531		-54.52148	
87.06271	3604.674		-55.14543	
87.11666	3601.762		-55.74447	
87.17061	3598.799		-56.31929	
87.22456	3595.774		-56.87106	
87.27851	3592.681		-57.4007	
87.33247	3589.519		-57.90966	
87.38642	3586.294		-58.3991	
87.44037	3583.006		-58.87041	
87.49432	3579.636		-59.32505	
87.54827	3576.162		-59.76432	
87.60223	3572.57		-60.18962	
87.65617	3568.864		-60.6021	
87.71013	3565.06		-61.00304	
87.76408	3561.185		-61.39334	
87.81803	3557.267		-61.77409	
87.87199	3553.33		-62.14601	
87.92593	3549.391		-62.50982	
87.97989	3545.468		-62.86616	
88.03384	3541.573		-63.21544	
88.08779	3537.705		-63.55814	
88.14174	3533.858		-63.89445	
88.19569	3530.022		-64.22469	
88.24964	3526.192		-64.54891	
88.3036	3522.369		-64.86732	
88.35754	3518.56		-65.17979	
88.4115	3514.763		-65.48641	
88.46545	3510.985		-65.78705	
88.5194	3507.231		-66.0816	
88.57336	3503.511		-66.36999	
88.6273	3499.84		-66.65202	
88.68126	3496.233		-66.92757	
88.73521	3492.697		-67.1964	
88.78916	3489.233		-67.45838	
88.84311	3485.843		-67.71326	
88.89706	3482.515		-67.96092	
88.95102	3479.232		-68.2012	
89.00497	3475.973		-68.434	
89.05892	3472.708		-68.65941	
89.11287	3469.411		-68.87749	
89.16682	3466.053		-69.08856	
89.22077	3462.612		-69.29291	
89.27473	3459.078		-69.49107	
89.32867	3455.466		-69.68365	
89.38263	3451.802		-69.87151	
89.43658	3448.114		-70.05554	
89.49053	3444.419		-70.23685	
89.54449	3440.73		-70.41652	
89.59843	3437.051		-70.5956	
89.65239	3433.376		-70.77518	
89.70634	3429.699		-70.95615	
89.76029	3426.007		-71.13938	
89.81424	3422.294		-71.32549	
89.86819	3418.547		-71.51505	
89.92214	3414.752		-71.70839	
89.9761	3410.901		-71.90574	
90.03004	3406.991		-72.10707	
90.084	3403.023		-72.31229	
90.13795	3399.011		-72.52119	
90.1919	3394.97		-72.73347	
90.24586	3390.912		-72.94888	
90.2998	3386.847		-73.16704	
90.35376	3382.782		-73.38759	
90.40771	3378.726		-73.61003	
90.46166	3374.681		-73.83394	
90.51561	3370.64		-74.05871	
90.56956	3366.595		-74.28384	
90.62352	3362.535		-74.50864	
90.67747	3358.449		-74.7324	
90.73142	3354.326		-74.9544	
90.78537	3350.166		-75.17377	
90.83932	3345.97		-75.38973	
90.89327	3341.753		-75.60132	
90.94723	3337.529		-75.80764	
91.00117	3333.313		-76.00769	
91.05513	3329.11		-76.20057	
91.10908	3324.919		-76.38525	
91.16303	3320.731		-76.56091	
91.21699	3316.536		-76.72662	
91.27094	3312.329		-76.88164	
91.32489	3308.109		-77.02534	
91.37884	3303.88		-77.15719	
91.43279	3299.641		-77.27686	
91.48674	3295.392		-77.38408	
91.5407	3291.126		-77.47884	
91.59464	3286.843		-77.56115	
91.6486	3282.537		-77.63126	
91.70255	3278.212		-77.68945	
91.7565	3273.881		-77.73615	
91.81046	3269.551		-77.77181	
91.8644	3265.224		-77.79703	
91.91836	3260.898		-77.81236	
91.97231	3256.567		-77.81837	
92.02626	3252.217		-77.81552	
92.08021	3247.843		-77.80429	
92.13416	3243.449		-77.78508	
92.18811	3239.054		-77.75828	
92.24207	3234.667		-77.72431	
92.29602	3230.299		-77.68354	
92.34997	3225.96		-77.63641	
92.40392	3221.654		-77.58327	
92.45787	3217.388		-77.47433	
92.51183	3213.159		-77.36776	
92.56577	3208.969		-77.26367	
92.61973	3204.807		-77.1618	
92.67368	3200.665		-77.06179	
92.72763	3196.517		-76.96318	
92.78158	3192.346		-76.86558	
92.83553	3188.137		-76.76859	
92.88949	3183.889		-76.67191	
92.94344	3179.614		-76.5753	
92.99739	3175.327		-76.47853	
93.05134	3171.045		-76.38145	
93.10529	3166.783		-76.28388	
93.15924	3162.552		-76.18575	
93.2132	3158.358		-76.08691	
93.26714	3154.208		-75.98734	
93.3211	3150.1		-75.88692	
93.37505	3146.034		-75.78565	
93.429	3142.006		-75.68349	
93.48296	3138.003		-75.58039	
93.5369	3134.021		-75.47636	
93.59086	3130.05		-75.37138	
93.64481	3126.08		-75.26548	
93.69876	3122.114		-75.15863	
93.75271	3118.16		-75.0509	
93.80666	3114.222		-74.94228	
93.86061	3110.306		-74.83286	
93.91457	3106.416		-74.72261	
93.96852	3102.564		-74.61163	
94.02247	3098.749		-74.49995	
94.07642	3094.99		-74.38763	
94.13037	3091.149		-74.27471	
94.18433	3087.261		-74.16124	
94.23827	3083.354		-74.04728	
94.29223	3079.437		-73.93285	
94.34618	3075.519		-73.81805	
94.40013	3071.599		-73.70287	
94.45409	3067.679		-73.58738	
94.50803	3063.761		-73.47164	
94.56199	3059.842		-73.35566	
94.61594	3055.922		-73.23952	
94.66989	3051.999		-73.12321	
94.72384	3048.071		-73.0068	
94.77779	3044.136		-72.89029	
94.83174	3040.195		-72.77375	
94.8857	3036.244		-72.65717	
94.93964	3032.284		-72.5406	
94.9936	3028.312		-72.42402	
