T[Â°C]	330nm [counts / mm]	S.D.	First derivative	S.D. of first derivative
20.00061	4990.793	10.79374	-68.21793	4.53859
20.05472	4986.947	10.8182	-68.19751	4.461821
20.10883	4983.108	10.84181	-68.17717	4.385662
20.16294	4979.275	10.86522	-68.15691	4.310156
20.21704	4975.448	10.888	-68.13673	4.235345
20.27115	4971.628	10.90975	-68.11665	4.161269
20.32526	4967.813	10.93062	-68.09666	4.08797
20.37937	4964.004	10.95038	-68.07677	4.015501
20.43348	4960.199	10.97017	-68.05699	3.943914
20.48759	4956.4	10.99062	-68.03732	3.873262
20.54169	4952.604	11.0117	-68.01778	3.803614
20.5958	4948.81	11.03482	-67.99836	3.735017
20.64991	4945.018	11.06013	-67.97906	3.667547
20.70402	4941.226	11.08851	-67.95992	3.60126
20.75813	4937.432	11.12025	-67.94091	3.536234
20.81223	4933.638	11.15601	-67.92204	3.472532
20.86634	4929.846	11.19516	-67.90334	3.410237
20.92045	4926.071	11.23668	-67.88479	3.34941
20.97456	4922.385	11.32693	-67.86639	3.290138
21.02867	4918.727	11.44099	-67.84817	3.232491
21.08278	4915.094	11.57845	-67.83012	3.176552
21.13688	4911.483	11.73457	-67.81223	3.122394
21.19099	4907.893	11.9047	-67.79451	3.0701
21.2451	4904.321	12.08169	-67.77697	3.019745
21.29921	4900.754	12.26341	-67.75961	2.9714
21.35332	4897.183	12.45403	-67.74244	2.925145
21.40742	4893.594	12.65529	-67.72546	2.881032
21.46153	4889.974	12.866	-67.70869	2.83914
21.51564	4886.321	13.0815	-67.69212	2.799515
21.56975	4882.632	13.29969	-67.67574	2.762211
21.62386	4878.91	13.51211	-67.65959	2.727261
21.67797	4875.159	13.70924	-67.64366	2.6947
21.73207	4871.392	13.88192	-67.62794	2.664564
21.78618	4867.622	14.02402	-67.61245	2.63687
21.84029	4863.858	14.12745	-67.59717	2.611643
21.8944	4860.111	14.19123	-67.58209	2.588888
21.94851	4856.389	14.21886	-67.56722	2.568623
22.00262	4852.695	14.21034	-67.55254	2.55085
22.05672	4849.024	14.1632	-67.53801	2.535567
22.11083	4845.371	14.0779	-67.52362	2.522784
22.16494	4841.731	13.95838	-67.50935	2.512471
22.21905	4838.101	13.81144	-67.49515	2.504611
22.27316	4834.478	13.64677	-67.48099	2.499139
22.32726	4830.863	13.47223	-67.46684	2.495958
22.38137	4827.256	13.29419	-67.45267	2.494885
22.43548	4823.658	13.11875	-67.4385	2.495624
22.48959	4820.065	12.95201	-67.42436	2.497724
22.5437	4816.474	12.79797	-67.41035	2.500519
22.59781	4812.885	12.6555	-67.39661	2.503237
22.65191	4809.298	12.52109	-67.3864	2.47892
22.70602	4805.722	12.39156	-67.37513	2.449818
22.76013	4802.162	12.26638	-67.36269	2.415651
22.81424	4798.618	12.14816	-67.34901	2.376193
22.86835	4795.086	12.03972	-67.33398	2.331322
22.92245	4791.563	11.94249	-67.31754	2.281015
22.97656	4788.042	11.85925	-67.29964	2.225333
23.03067	4784.513	11.79296	-67.28024	2.164446
23.08478	4780.964	11.74702	-67.25931	2.098608
23.13889	4777.386	11.72876	-67.23682	2.028185
23.193	4773.774	11.73741	-67.21274	1.953606
23.2471	4770.126	11.76247	-67.18707	1.875403
23.30121	4766.443	11.79246	-67.15978	1.794147
23.35532	4762.729	11.82273	-67.13091	1.710433
23.40943	4758.994	11.85564	-67.10047	1.624882
23.46354	4755.249	11.89261	-67.06851	1.538116
23.51765	4751.504	11.93496	-67.03513	1.450759
23.57175	4747.767	11.97882	-67.00047	1.363425
23.62586	4744.041	12.01772	-66.9647	1.276698
23.67997	4740.327	12.04785	-66.92802	1.191129
23.73408	4736.629	12.06869	-66.89066	1.107235
23.78819	4732.947	12.07699	-66.8529	1.025473
23.84229	4729.274	12.06833	-66.81497	0.946265
23.8964	4725.605	12.0435	-66.77709	0.8699611
23.95051	4721.94	12.01246	-66.73942	0.7968654
24.00462	4718.276	11.99312	-66.70212	0.72721
24.05873	4714.609	12.00121	-66.66529	0.6611903
24.11284	4710.936	12.04375	-66.62904	0.5989543
24.16694	4707.254	12.11984	-66.59341	0.5406139
24.22105	4703.57	12.22069	-66.5584	0.4862458
24.27516	4699.889	12.33224	-66.52393	0.4359076
24.32927	4696.215	12.43742	-66.48994	0.3896315
24.38338	4692.555	12.52192	-66.45626	0.3474852
24.43748	4688.917	12.58151	-66.42274	0.309588
24.49159	4685.306	12.62024	-66.38919	0.2762059
24.5457	4681.724	12.64519	-66.35538	0.2477988
24.59981	4678.162	12.66546	-66.32113	0.2250776
24.65392	4674.61	12.68776	-66.2862	0.2089463
24.70803	4671.06	12.71249	-66.2504	0.2003413
24.76213	4667.505	12.73768	-66.21356	0.1997938
24.81624	4663.942	12.76363	-66.17553	0.2070778
24.87035	4660.373	12.79577	-66.13618	0.2211461
24.92446	4656.803	12.84521	-66.09545	0.2404759
24.97857	4653.237	12.92238	-66.05328	0.2634736
25.03268	4649.682	13.03146	-66.00964	0.2886831
25.08678	4646.144	13.17535	-65.96451	0.3148506
25.14089	4642.623	13.35569	-65.91791	0.3409139
25.195	4639.115	13.56342	-65.86985	0.3659572
25.24911	4635.616	13.77668	-65.82035	0.3891772
25.30322	4632.122	13.96854	-65.76942	0.4098473
25.35732	4628.632	14.12091	-65.71712	0.4273333
25.41143	4625.146	14.2211	-65.66348	0.4410505
25.46554	4621.66	14.26072	-65.60858	0.4505239
25.51965	4618.171	14.23509	-65.55256	0.4553426
25.57376	4614.677	14.14605	-65.49557	0.4552114
25.62787	4611.182	14.00228	-65.4378	0.4499799
25.68197	4607.685	13.81797	-65.37947	0.4395946
25.73608	4604.191	13.60923	-65.32081	0.4241154
25.79019	4600.706	13.39215	-65.26205	0.4036795
25.8443	4597.232	13.17295	-65.20343	0.3785211
25.89841	4593.775	12.95374	-65.14514	0.3489191
25.95251	4590.332	12.73957	-65.08743	0.3152258
26.00662	4586.893	12.53814	-65.0305	0.277838
26.06073	4583.446	12.35826	-64.9746	0.2372477
26.11484	4579.977	12.20747	-64.91991	0.1940327
26.16895	4576.477	12.09195	-64.86663	0.1489421
26.22306	4572.943	12.01616	-64.81489	0.1030917
26.27716	4569.373	11.97777	-64.76481	0.05916137
26.33127	4565.769	11.96624	-64.71645	0.03238184
26.38538	4562.137	11.97058	-64.66985	0.0567349
26.43949	4558.493	11.98269	-64.62496	0.09824404
26.4936	4554.857	11.99438	-64.58172	0.1404116
26.5477	4551.239	12.00561	-64.54001	0.180398
26.60181	4547.644	12.02359	-64.49967	0.2170142
26.65592	4544.071	12.05794	-64.46053	0.2494773
26.71003	4540.518	12.11629	-64.42237	0.2771915
26.76414	4536.98	12.20656	-64.385	0.2997352
26.81825	4533.458	12.33418	-64.34822	0.31685
26.87235	4529.951	12.49852	-64.31181	0.3284097
26.92646	4526.456	12.69443	-64.27557	0.334432
26.98057	4522.97	12.90388	-64.23933	0.3350675
27.03468	4519.493	13.10812	-64.20292	0.3306262
27.08879	4516.022	13.29006	-64.1662	0.3215384
27.1429	4512.561	13.4392	-64.12905	0.3083325
27.197	4509.107	13.54807	-64.09137	0.291623
27.25111	4505.667	13.60623	-64.05311	0.2720767
27.30522	4502.238	13.60561	-64.01423	0.2503866
27.35933	4498.825	13.54559	-63.97472	0.227283
27.41344	4495.428	13.43253	-63.93462	0.2034985
27.46754	4492.043	13.27828	-63.89394	0.1797217
27.52165	4488.665	13.10027	-63.85271	0.1565742
27.57576	4485.287	12.91724	-63.81094	0.1345645
27.62987	4481.906	12.7441	-63.76859	0.1140763
27.68398	4478.518	12.59537	-63.72562	0.09535583
27.73809	4475.118	12.48301	-63.68196	0.07850216
27.79219	4471.705	12.41379	-63.63752	0.06347857
27.8463	4468.28	12.38376	-63.59228	0.05017592
27.90041	4464.847	12.38155	-63.5462	0.03855601
27.95452	4461.412	12.39557	-63.49934	0.02900551
28.00863	4457.974	12.4184	-63.45182	0.02317087
28.06273	4454.535	12.44549	-63.40378	0.02401175
28.11684	4451.092	12.47283	-63.35547	0.03168019
28.17095	4447.646	12.49855	-63.30716	0.04347397
28.22506	4444.198	12.52697	-63.25919	0.05762316
28.27917	4440.752	12.55965	-63.21189	0.07331128
28.33328	4437.309	12.59871	-63.16563	0.09005136
28.38738	4433.869	12.64575	-63.12074	0.1074544
28.44149	4430.435	12.69925	-63.07754	0.1251674
28.4956	4427.004	12.75679	-63.03629	0.1428634
28.54971	4423.58	12.82136	-62.99718	0.1602357
28.60382	4420.164	12.89564	-62.96035	0.1769926
28.65793	4416.758	12.97679	-62.92588	0.1928651
28.71203	4413.362	13.06014	-62.89375	0.2075788
28.76614	4409.977	13.13892	-62.8639	0.2208492
28.82025	4406.601	13.20926	-62.8362	0.2323883
28.87436	4403.23	13.27256	-62.81049	0.241904
28.92847	4399.86	13.32954	-62.78656	0.2491466
28.98257	4396.49	13.37324	-62.76418	0.2539286
29.03668	4393.117	13.39522	-62.74313	0.2561534
29.09079	4389.738	13.39097	-62.72319	0.2558077
29.1449	4386.356	13.35969	-62.70412	0.2530088
29.19901	4382.97	13.30481	-62.6857	0.2480202
29.25312	4379.58	13.23002	-62.66775	0.2413096
29.30722	4376.189	13.13344	-62.65011	0.2336372
29.36133	4372.804	13.01739	-62.63269	0.2261647
29.41544	4369.429	12.88794	-62.61541	0.2205158
29.46955	4366.068	12.75509	-62.59821	0.2187427
29.52366	4362.72	12.62498	-62.58104	0.2230734
29.57776	4359.378	12.49998	-62.56378	0.2353225
29.63187	4356.038	12.38266	-62.54631	0.2563674
29.68598	4352.695	12.27907	-62.52848	0.2859973
29.74009	4349.342	12.19376	-62.51011	0.3232272
29.7942	4345.973	12.12911	-62.491	0.3667345
29.84831	4342.586	12.08404	-62.47092	0.4151666
29.90241	4339.189	12.0551	-62.44965	0.4672627
29.95652	4335.791	12.03726	-62.42699	0.5218917
30.01063	4332.401	12.02844	-62.40275	0.5780553
30.06474	4329.024	12.01879	-62.37679	0.634846
30.11885	4325.661	11.99809	-62.34903	0.6914157
30.17296	4322.31	11.96164	-62.31939	0.7469941
30.22706	4318.968	11.9092	-62.28791	0.8008703
30.28117	4315.63	11.84975	-62.25467	0.8523927
30.33528	4312.292	11.79794	-62.21983	0.9009932
30.38939	4308.958	11.76251	-62.18355	0.9461872
30.4435	4305.625	11.74064	-62.14607	0.9875553
30.4976	4302.286	11.72846	-62.10762	1.024753
30.55171	4298.931	11.72386	-62.06842	1.057498
30.60582	4295.553	11.72533	-62.02871	1.085583
30.65993	4292.146	11.73301	-61.98869	1.10885
30.71404	4288.712	11.74402	-61.94853	1.127206
30.76815	4285.258	11.75737	-61.90841	1.140592
30.82225	4281.792	11.77357	-61.86848	1.14898
30.87636	4278.325	11.79861	-61.82887	1.152385
30.93047	4274.871	11.83752	-61.78967	1.150904
30.98458	4271.442	11.88864	-61.75095	1.14474
31.03869	4268.044	11.95721	-61.71274	1.134179
31.09279	4264.674	12.0489	-61.67505	1.119596
31.1469	4261.325	12.16682	-61.63784	1.101447
31.20101	4257.986	12.3139	-61.6011	1.080261
31.25512	4254.651	12.48889	-61.56481	1.05663
31.30923	4251.315	12.68352	-61.52896	1.031214
31.36334	4247.971	12.88673	-61.49357	1.004712
31.41744	4244.616	13.08381	-61.45867	0.9778516
31.47155	4241.247	13.26191	-61.4243	0.9513717
31.52566	4237.867	13.41442	-61.39053	0.9259946
31.57977	4234.482	13.5416	-61.3574	0.9023879
31.63388	4231.098	13.65091	-61.32499	0.8811342
31.68799	4227.73	13.75292	-61.29334	0.8626795
31.74209	4224.386	13.85563	-61.2625	0.8472893
31.7962	4221.071	13.96183	-61.23243	0.8350282
31.85031	4217.785	14.06936	-61.20309	0.825783
31.90442	4214.525	14.17426	-61.17437	0.8192727
31.95853	4211.286	14.27787	-61.14611	0.8151068
32.01263	4208.062	14.37812	-61.1181	0.8128061
32.06674	4204.85	14.46334	-61.09011	0.8118283
32.12085	4201.649	14.52211	-61.06186	0.8116285
32.17496	4198.458	14.54916	-61.03305	0.8116995
32.22907	4195.271	14.54621	-61.00344	0.8116062
32.28318	4192.078	14.5163	-60.97279	0.8110045
32.33728	4188.872	14.46488	-60.94088	0.8096151
32.39139	4185.654	14.39817	-60.90758	0.8071886
32.4455	4182.422	14.32003	-60.87277	0.8035117
32.49961	4179.179	14.23527	-60.83643	0.7984048
32.55372	4175.927	14.14236	-60.79862	0.7917574
32.60783	4172.672	14.03986	-60.75946	0.7835352
32.66193	4169.418	13.92174	-60.71912	0.7737836
32.71604	4166.173	13.77953	-60.67787	0.7626145
32.77015	4162.938	13.60766	-60.63599	0.750177
32.82426	4159.703	13.40593	-60.59379	0.7366354
32.87836	4156.461	13.18036	-60.5516	0.7221571
32.93248	4153.217	12.94152	-60.5097	0.7069009
32.98658	4149.972	12.70094	-60.46836	0.6910121
33.04069	4146.726	12.46606	-60.42781	0.6746235
33.0948	4143.472	12.23586	-60.38823	0.6578631
33.14891	4140.208	12.0025	-60.34979	0.6408619
33.20301	4136.93	11.75852	-60.31258	0.6237373
33.25712	4133.638	11.50651	-60.27668	0.6065902
33.31123	4130.331	11.25451	-60.24214	0.589519
33.36534	4127.012	11.01358	-60.20896	0.5726154
33.41945	4123.683	10.7921	-60.17711	0.5559512
33.47356	4120.35	10.60075	-60.14656	0.5395712
33.52766	4117.016	10.4444	-60.11727	0.5234625
33.58177	4113.679	10.32025	-60.08919	0.5075535
33.63588	4110.341	10.22191	-60.06224	0.4917011
33.68999	4107.006	10.14682	-60.0363	0.4757132
33.7441	4103.676	10.094	-60.01123	0.4593733
33.79821	4100.351	10.06324	-59.98685	0.4424792
33.85231	4097.033	10.0568	-59.96297	0.4248529
33.90642	4093.72	10.07611	-59.93932	0.4063603
33.96053	4090.409	10.12125	-59.91565	0.3868976
34.01464	4087.097	10.1935	-59.89166	0.3663798
34.06875	4083.78	10.28689	-59.86704	0.3447565
34.12286	4080.456	10.39419	-59.8415	0.3220148
34.17696	4077.131	10.51655	-59.81471	0.2981895
34.23107	4073.815	10.65536	-59.78638	0.2733713
34.28518	4070.519	10.80829	-59.7562	0.2476939
34.33929	4067.257	10.96866	-59.72388	0.2213414
34.39339	4064.039	11.12752	-59.6891	0.194541
34.44751	4060.87	11.2822	-59.65162	0.16756
34.50161	4057.749	11.4328	-59.61123	0.140742
34.55572	4054.66	11.58548	-59.56782	0.1145984
34.60983	4051.59	11.74941	-59.52134	0.08999677
34.66394	4048.524	11.92511	-59.47185	0.06872244
34.71804	4045.456	12.10709	-59.41946	0.05458423
34.77215	4042.376	12.28187	-59.36437	0.05295185
34.82626	4039.273	12.43407	-59.30677	0.06386781
34.88037	4036.144	12.55315	-59.24695	0.08146819
34.93448	4032.992	12.64093	-59.18521	0.1013042
34.98859	4029.819	12.70746	-59.12188	0.1212718
35.04269	4026.627	12.76273	-59.05729	0.1403639
35.0968	4023.421	12.81188	-58.99181	0.1580345
35.15091	4020.208	12.85662	-58.92578	0.1739866
35.20502	4016.992	12.89849	-58.85958	0.1880588
35.25913	4013.775	12.9351	-58.79357	0.2001845
35.31324	4010.557	12.9639	-58.72808	0.2103979
35.36734	4007.341	12.98092	-58.66346	0.2188286
35.42145	4004.125	12.98309	-58.60001	0.2257092
35.47556	4000.908	12.96989	-58.53803	0.2313578
35.52967	3997.688	12.93837	-58.4778	0.2361961
35.58378	3994.459	12.88637	-58.41953	0.2407582
35.63789	3991.22	12.8185	-58.3634	0.2456416
35.69199	3987.967	12.74116	-58.30956	0.2515086
35.7461	3984.698	12.65867	-58.25811	0.2589897
35.80021	3981.415	12.57774	-58.20914	0.2686549
35.85432	3978.13	12.50119	-58.16269	0.2809587
35.90842	3974.858	12.42696	-58.1188	0.2961904
35.96254	3971.614	12.35465	-58.07748	0.3144523
36.01664	3968.411	12.28193	-58.03873	0.3356322
36.07075	3965.256	12.20557	-58.00253	0.3594182
36.12486	3962.15	12.12276	-57.96887	0.3853832
36.17897	3959.091	12.03737	-57.93769	0.4130233
36.23307	3956.069	11.95455	-57.90891	0.441827
36.28718	3953.074	11.87787	-57.8824	0.4712983
36.34129	3950.095	11.80222	-57.85796	0.5009797
36.3954	3947.121	11.72343	-57.83537	0.5304677
36.44951	3944.147	11.64031	-57.81435	0.5593917
36.50362	3941.166	11.55686	-57.79464	0.5874212
36.55772	3938.168	11.47926	-57.77595	0.6142706
36.61183	3935.151	11.41405	-57.75805	0.6396899
36.66594	3932.111	11.36682	-57.74068	0.6634872
36.72005	3929.043	11.33869	-57.72367	0.6855497
36.77416	3925.951	11.32817	-57.70682	0.705814
36.82827	3922.841	11.33201	-57.68998	0.7242907
36.88237	3919.728	11.34176	-57.67301	0.741019
36.93648	3916.626	11.35358	-57.65578	0.7560588
36.99059	3913.54	11.37328	-57.6382	0.7694558
37.0447	3910.469	11.40449	-57.62015	0.7812159
37.09881	3907.406	11.44531	-57.60157	0.7912871
37.15292	3904.344	11.4894	-57.58238	0.7995419
37.20702	3901.274	11.52698	-57.56254	0.8057943
37.26113	3898.188	11.55268	-57.54202	0.8098457
37.31524	3895.086	11.56439	-57.52081	0.8114998
37.36935	3891.968	11.56476	-57.49894	0.8106043
37.42345	3888.833	11.5616	-57.47644	0.8070545
37.47757	3885.685	11.56226	-57.45338	0.8008027
37.53167	3882.529	11.56968	-57.42983	0.7918629
37.58578	3879.374	11.58706	-57.40588	0.7803089
37.63989	3876.225	11.61695	-57.3816	0.7662641
37.694	3873.088	11.66131	-57.35709	0.7498991
37.7481	3869.97	11.72268	-57.33246	0.7314242
37.80221	3866.876	11.79971	-57.30781	0.711064
37.85632	3863.801	11.89684	-57.2832	0.6890502
37.91043	3860.736	12.01996	-57.25869	0.6656231
37.96454	3857.673	12.16494	-57.23433	0.6409931
38.01865	3854.603	12.32207	-57.21011	0.6153367
38.07275	3851.519	12.48084	-57.18602	0.5887847
38.12686	3848.417	12.63253	-57.162	0.5614457
38.18097	3845.294	12.76967	-57.13795	0.5334145
38.23508	3842.145	12.88866	-57.11376	0.5047873
38.28919	3838.97	12.98847	-57.08928	0.4756562
38.3433	3835.773	13.06925	-57.06433	0.4461463
38.3974	3832.562	13.13486	-57.03876	0.4163944
38.45151	3829.348	13.19332	-57.0124	0.3865758
38.50562	3826.14	13.24922	-56.9851	0.3568719
38.55973	3822.945	13.30854	-56.95677	0.3274832
38.61384	3819.768	13.37781	-56.92731	0.2986254
38.66795	3816.609	13.46178	-56.89669	0.2705334
38.72205	3813.463	13.56119	-56.86489	0.2434496
38.77616	3810.323	13.67697	-56.83188	0.217633
38.83027	3807.189	13.80251	-56.79767	0.1933132
38.88438	3804.064	13.92211	-56.76224	0.1706416
38.93848	3800.95	14.01893	-56.72558	0.1496455
38.9926	3797.849	14.08195	-56.68767	0.1301863
39.0467	3794.763	14.1072	-56.64846	0.1119713
39.10081	3791.689	14.09717	-56.60788	0.09459587
39.15492	3788.617	14.0595	-56.56588	0.07762175
39.20903	3785.543	14.00453	-56.52236	0.06065281
39.26313	3782.467	13.9363	-56.47725	0.04344553
39.31724	3779.397	13.85526	-56.43049	0.02626209
39.37135	3776.346	13.76402	-56.38207	0.01293121
39.42546	3773.323	13.66352	-56.33201	0.02080935
39.47957	3770.333	13.55472	-56.28041	0.04023458
39.53368	3767.38	13.44048	-56.22741	0.06216562
39.58778	3764.462	13.32599	-56.17318	0.08551206
39.64189	3761.568	13.21608	-56.11792	0.1099853
39.696	3758.686	13.11411	-56.06189	0.1354219
39.75011	3755.806	13.01392	-56.00534	0.1616716
39.80422	3752.918	12.90982	-55.94856	0.1885759
39.85833	3750.011	12.79825	-55.89181	0.2159676
39.91243	3747.079	12.67821	-55.83533	0.2436561
39.96654	3744.118	12.54762	-55.77933	0.2714204
40.02065	3741.125	12.40867	-55.72397	0.2989983
40.07476	3738.104	12.27149	-55.6694	0.3261039
40.12887	3735.059	12.14769	-55.61572	0.3524499
40.18298	3731.998	12.04312	-55.56298	0.3777512
40.23708	3728.926	11.958	-55.51127	0.4017446
40.29119	3725.845	11.8878	-55.46061	0.4241879
40.3453	3722.765	11.82574	-55.41103	0.4448487
40.39941	3719.7	11.77104	-55.36258	0.4635144
40.45351	3716.661	11.72342	-55.31528	0.4800116
40.50763	3713.651	11.68069	-55.26917	0.4942195
40.56173	3710.668	11.64157	-55.2243	0.506076
40.61584	3707.708	11.61003	-55.18069	0.5155759
40.66995	3704.759	11.59077	-55.13838	0.5227997
40.72406	3701.811	11.58732	-55.0974	0.5279018
40.77816	3698.854	11.60164	-55.05777	0.5311083
40.83227	3695.885	11.63736	-55.0195	0.5327073
40.88638	3692.9	11.69698	-54.98259	0.5330247
40.94049	3689.902	11.78263	-54.94701	0.5324299
40.9946	3686.897	11.89365	-54.91273	0.5313135
41.04871	3683.896	12.01797	-54.87971	0.5300923
41.10281	3680.906	12.1428	-54.84788	0.5291572
41.15692	3677.934	12.26246	-54.81713	0.528863
41.21103	3674.982	12.37401	-54.78735	0.5295083
41.26514	3672.049	12.48436	-54.75843	0.5312951
41.31925	3669.133	12.60516	-54.73022	0.534319
41.37336	3666.233	12.74287	-54.70264	0.5385669
41.42746	3663.343	12.89582	-54.67561	0.5439205
41.48157	3660.457	13.05497	-54.64908	0.5501778
41.53568	3657.564	13.21045	-54.62299	0.5570675
41.58979	3654.661	13.3514	-54.59729	0.5642821
41.64389	3651.747	13.47022	-54.57196	0.5714771
41.69801	3648.82	13.56363	-54.54699	0.578276
41.75211	3645.882	13.63637	-54.52238	0.584286
41.80622	3642.927	13.69739	-54.49816	0.5890909
41.86033	3639.958	13.75747	-54.47437	0.592283
41.91444	3636.974	13.8206	-54.45104	0.5934602
41.96854	3633.974	13.87993	-54.42828	0.5922534
42.02265	3630.962	13.92513	-54.40617	0.58834
42.07676	3627.943	13.94773	-54.38479	0.5814689
42.13087	3624.925	13.94226	-54.36422	0.5714747
42.18498	3621.915	13.90622	-54.34451	0.5582669
42.23909	3618.916	13.83951	-54.32568	0.5418348
42.29319	3615.928	13.74523	-54.30774	0.5222201
42.3473	3612.954	13.63045	-54.2906	0.499509
42.40141	3609.998	13.50643	-54.27414	0.4738455
42.45552	3607.068	13.38972	-54.25819	0.4454405
42.50963	3604.162	13.28665	-54.24256	0.4145974
42.56374	3601.277	13.19749	-54.22701	0.3817152
42.61784	3598.405	13.11946	-54.21128	0.3473171
42.67195	3595.537	13.04848	-54.1951	0.3120504
42.72606	3592.666	12.97988	-54.17822	0.2766822
42.78017	3589.784	12.90856	-54.16034	0.2421195
42.83428	3586.887	12.83163	-54.14122	0.209444
42.88839	3583.98	12.75221	-54.12064	0.1799465
42.94249	3581.067	12.67912	-54.09842	0.1551268
42.9966	3578.154	12.61691	-54.07446	0.1365231
43.05071	3575.242	12.56677	-54.04866	0.1251753
43.10482	3572.334	12.52956	-54.021	0.1208771
43.15892	3569.437	12.50096	-53.99148	0.1219121
43.21304	3566.551	12.48084	-53.96013	0.1257456
43.26714	3563.675	12.47267	-53.92699	0.1300333
43.32125	3560.805	12.47935	-53.8921	0.1330991
43.37536	3557.943	12.50146	-53.8555	0.133998
43.42947	3555.087	12.53636	-53.81723	0.1324105
43.48357	3552.235	12.57847	-53.77731	0.1285325
43.53768	3549.378	12.62294	-53.73578	0.1230365
43.59179	3546.505	12.66673	-53.69267	0.1170785
43.6459	3543.605	12.70522	-53.64803	0.1122621
43.70001	3540.672	12.7319	-53.60193	0.1104328
43.75412	3537.707	12.74124	-53.55449	0.1131356
43.80822	3534.712	12.72723	-53.50587	0.1209755
43.86233	3531.701	12.68747	-53.45627	0.133392
43.91644	3528.685	12.63098	-53.40594	0.1491176
43.97055	3525.673	12.57266	-53.35516	0.1667335
44.02466	3522.672	12.53047	-53.30421	0.1850026
44.07877	3519.689	12.51822	-53.25338	0.2029689
44.13287	3516.725	12.54245	-53.20293	0.2199186
44.18698	3513.773	12.60081	-53.15308	0.2353383
44.24109	3510.827	12.68435	-53.10402	0.2488592
44.2952	3507.884	12.78147	-53.05589	0.2602354
44.34931	3504.943	12.88183	-53.00875	0.2692966
44.40342	3502.007	12.98395	-52.96264	0.2759829
44.45752	3499.076	13.08752	-52.9175	0.2803171
44.51163	3496.15	13.19407	-52.87326	0.2824317
44.56574	3493.23	13.2993	-52.82977	0.282563
44.61985	3490.324	13.39492	-52.78684	0.281057
44.67395	3487.439	13.47835	-52.74425	0.278347
44.72807	3484.575	13.54991	-52.70176	0.2749217
44.78217	3481.732	13.61746	-52.65914	0.271279
44.83628	3478.911	13.69094	-52.61618	0.2678759
44.89039	3476.113	13.77675	-52.5727	0.265054
44.9445	3473.335	13.87392	-52.52861	0.2629922
44.9986	3470.574	13.9768	-52.48386	0.2616736
45.05271	3467.822	14.07922	-52.43843	0.2608971
45.10682	3465.073	14.17529	-52.39236	0.260313
45.16093	3462.328	14.26033	-52.34568	0.2594568
45.21504	3459.585	14.32614	-52.29839	0.2578122
45.26915	3456.844	14.36308	-52.25051	0.2548727
45.32325	3454.099	14.3626	-52.20203	0.2501839
45.37736	3451.349	14.31934	-52.1529	0.2434031
45.43147	3448.594	14.23524	-52.10311	0.2343202
45.48558	3445.834	14.11763	-52.05262	0.2228799
45.53969	3443.07	13.97424	-52.0014	0.2091798
45.5938	3440.301	13.81548	-51.94945	0.1934771
45.6479	3437.529	13.6517	-51.89678	0.1761728
45.70201	3434.757	13.49698	-51.84343	0.1577952
45.75612	3431.985	13.36253	-51.78949	0.1390501
45.81023	3429.217	13.2527	-51.73508	0.1208726
45.86434	3426.456	13.16678	-51.68034	0.1045961
45.91845	3423.701	13.10119	-51.62545	0.09207055
45.97255	3420.949	13.05849	-51.57062	0.08548955
46.02666	3418.201	13.04431	-51.51606	0.08636194
46.08077	3415.455	13.06114	-51.46201	0.09429034
46.13488	3412.704	13.10556	-51.40871	0.1073317
46.18898	3409.939	13.169	-51.35637	0.1233968
46.2431	3407.15	13.24333	-51.30518	0.1409798
46.2972	3404.335	13.32216	-51.25531	0.1591442
46.35131	3401.499	13.40228	-51.20692	0.1773584
46.40542	3398.647	13.48316	-51.16014	0.1953285
46.45953	3395.79	13.56552	-51.11509	0.212923
46.51363	3392.934	13.64904	-51.07184	0.2300641
46.56774	3390.089	13.72681	-51.03041	0.24673
46.62185	3387.262	13.78901	-50.99079	0.2629097
46.67596	3384.458	13.82324	-50.95292	0.2786219
46.73007	3381.676	13.82275	-50.91672	0.293897
46.78418	3378.911	13.78729	-50.8821	0.3087725
46.83828	3376.16	13.72185	-50.84896	0.3232739
46.89239	3373.421	13.63413	-50.81724	0.3374181
46.9465	3370.687	13.53387	-50.78686	0.3512084
47.00061	3367.952	13.42853	-50.75776	0.3646137
47.05472	3365.209	13.3261	-50.72983	0.3775882
47.10883	3362.457	13.23605	-50.70295	0.3900627
47.16293	3359.695	13.16463	-50.677	0.4019631
47.21704	3356.925	13.11195	-50.65182	0.4131941
47.27115	3354.144	13.07398	-50.62723	0.4236516
47.32526	3351.359	13.04195	-50.60306	0.4332244
47.37937	3348.576	13.0093	-50.57914	0.4417827
47.43348	3345.806	12.97352	-50.55526	0.4491882
47.48758	3343.051	12.9322	-50.53126	0.4552894
47.54169	3340.312	12.89039	-50.50692	0.4599264
47.5958	3337.585	12.85666	-50.48203	0.4629389
47.64991	3334.868	12.83944	-50.45641	0.4641935
47.70401	3332.16	12.84855	-50.42984	0.4635705
47.75813	3329.459	12.8946	-50.40216	0.4609941
47.81223	3326.766	12.98572	-50.37319	0.4564399
47.86634	3324.082	13.12058	-50.34282	0.4499694
47.92045	3321.406	13.29519	-50.31095	0.4417074
47.97456	3318.734	13.50411	-50.27756	0.4318556
48.02866	3316.071	13.73954	-50.24265	0.4206672
48.08277	3313.417	13.98649	-50.2063	0.408439
48.13688	3310.772	14.2261	-50.16856	0.3955058
48.19099	3308.135	14.44418	-50.1296	0.382244
48.2451	3305.503	14.63139	-50.08957	0.3690521
48.29921	3302.871	14.77994	-50.04872	0.3563479
48.35331	3300.234	14.88665	-50.00733	0.3445236
48.40742	3297.591	14.95277	-49.96572	0.333898
48.46153	3294.937	14.9885	-49.92426	0.3246704
48.51564	3292.268	15.01003	-49.88328	0.3168698
48.56975	3289.584	15.03045	-49.84314	0.3103308
48.62386	3286.891	15.05491	-49.8041	0.3047283
48.67796	3284.194	15.08298	-49.76643	0.2996306
48.73207	3281.497	15.11326	-49.73032	0.2945668
48.78618	3278.802	15.14208	-49.69594	0.289061
48.84029	3276.109	15.16057	-49.66343	0.2826614
48.8944	3273.417	15.15936	-49.63291	0.2749572
48.94851	3270.719	15.13243	-49.60448	0.2656142
49.00261	3268.001	15.07852	-49.57818	0.2543956
49.05672	3265.26	15.00029	-49.55403	0.241176
49.11083	3262.496	14.90125	-49.53204	0.2259264
49.16494	3259.718	14.78755	-49.51218	0.2087244
49.21904	3256.931	14.66663	-49.49441	0.189733
49.27316	3254.139	14.54917	-49.47866	0.1692161
49.32726	3251.344	14.44745	-49.46484	0.1475726
49.38137	3248.554	14.3684	-49.45282	0.1254303
49.43548	3245.775	14.31079	-49.44242	0.103925
49.48959	3243.019	14.26896	-49.43344	0.0852351
49.54369	3240.298	14.23716	-49.42566	0.07343499
49.5978	3237.611	14.21085	-49.4188	0.07361253
49.65191	3234.955	14.18686	-49.41259	0.08680147
49.70602	3232.325	14.15887	-49.40673	0.1089163
49.76013	3229.717	14.1223	-49.40088	0.1357561
49.81424	3227.124	14.0752	-49.3947	0.1647352
49.86834	3224.538	14.02097	-49.38783	0.194312
49.92245	3221.956	13.96723	-49.37991	0.2234504
49.97656	3219.376	13.92601	-49.37061	0.2513685
50.03067	3216.796	13.90811	-49.35957	0.2774341
50.08478	3214.217	13.91895	-49.3465	0.3011109
50.13889	3211.637	13.96221	-49.33115	0.3219728
50.19299	3209.052	14.03916	-49.31334	0.3396926
50.2471	3206.465	14.14691	-49.29295	0.3540204
50.30121	3203.878	14.27392	-49.26999	0.364803
50.35532	3201.296	14.40217	-49.24452	0.3719702
50.40943	3198.72	14.5133	-49.21671	0.3755486
50.46354	3196.148	14.59628	-49.18676	0.3756903
50.51764	3193.569	14.64818	-49.15493	0.3726877
50.57175	3190.97	14.67013	-49.1215	0.366988
50.62586	3188.345	14.66131	-49.08678	0.3591945
50.67997	3185.692	14.61717	-49.05105	0.3500704
50.73407	3183.011	14.53913	-49.01459	0.3405217
50.78819	3180.306	14.4352	-48.97766	0.331575
50.84229	3177.584	14.31586	-48.94049	0.3243212
50.8964	3174.85	14.19201	-48.9033	0.3197765
50.95051	3172.104	14.07478	-48.86629	0.318759
51.00462	3169.349	13.97082	-48.82962	0.3217525
51.05872	3166.585	13.88286	-48.79346	0.3288173
51.11283	3163.816	13.80898	-48.75793	0.3395861
51.16694	3161.054	13.74302	-48.72314	0.3533551
51.22105	3158.308	13.67892	-48.68921	0.3692466
51.27516	3155.583	13.61584	-48.6562	0.3863526
51.32927	3152.878	13.55378	-48.62415	0.4038374
51.38337	3150.181	13.49098	-48.59304	0.4209673
51.43748	3147.488	13.42465	-48.56279	0.4371246
51.49159	3144.795	13.3557	-48.53329	0.4518132
51.5457	3142.104	13.29068	-48.50437	0.4646339
51.59981	3139.417	13.23454	-48.47584	0.4752975
51.65392	3136.735	13.19101	-48.44748	0.4835832
51.70802	3134.064	13.1631	-48.41905	0.4893321
51.76213	3131.411	13.15332	-48.39029	0.4924486
51.81624	3128.78	13.16219	-48.3609	0.4928912
51.87035	3126.173	13.18783	-48.33057	0.4906875
51.92446	3123.592	13.227	-48.29897	0.4859333
51.97857	3121.035	13.27639	-48.26577	0.4787725
52.03267	3118.501	13.33047	-48.23066	0.4694084
52.08678	3115.984	13.38535	-48.19334	0.458092
52.14089	3113.474	13.43869	-48.15358	0.4451162
52.195	3110.961	13.49164	-48.11118	0.4307941
52.2491	3108.443	13.54867	-48.06596	0.4154717
52.30322	3105.918	13.61376	-48.01787	0.3995216
52.35732	3103.382	13.68506	-47.96686	0.3833422
52.41143	3100.833	13.75675	-47.91297	0.3673328
52.46554	3098.272	13.82102	-47.85631	0.3518792
52.51965	3095.704	13.87427	-47.79708	0.3373372
52.57375	3093.134	13.92159	-47.73552	0.3240064
52.62786	3090.565	13.96708	-47.67196	0.3120989
52.68197	3087.998	14.00563	-47.60674	0.3017438
52.73608	3085.436	14.03217	-47.54021	0.2929998
52.79019	3082.879	14.04879	-47.47276	0.2858778
52.8443	3080.327	14.06112	-47.40477	0.2803486
52.8984	3077.778	14.07719	-47.33661	0.2763644
52.95251	3075.229	14.10364	-47.26863	0.2738787
53.00662	3072.675	14.14387	-47.20118	0.2728483
53.06073	3070.108	14.20092	-47.13459	0.2732733
53.11484	3067.524	14.27261	-47.06916	0.275188
53.16895	3064.924	14.35402	-47.0052	0.2786627
53.22305	3062.311	14.44046	-46.94298	0.2837818
53.27716	3059.694	14.53049	-46.88274	0.2906289
53.33127	3057.08	14.62416	-46.82468	0.2992718
53.38538	3054.478	14.71431	-46.76896	0.309772
53.43949	3051.893	14.79066	-46.71568	0.322143
53.4936	3049.328	14.84607	-46.66488	0.3363664
53.5477	3046.782	14.87318	-46.61654	0.3523546
53.60181	3044.251	14.86627	-46.57063	0.3699382
53.65592	3041.726	14.82502	-46.52705	0.3888613
53.71003	3039.198	14.75502	-46.4857	0.4088032
53.76413	3036.663	14.66124	-46.4464	0.4294023
53.81824	3034.121	14.54904	-46.40894	0.4502836
53.87235	3031.576	14.42463	-46.37308	0.4710759
53.92646	3029.035	14.29365	-46.33854	0.4914052
53.98057	3026.506	14.16117	-46.30502	0.510918
54.03468	3023.995	14.02779	-46.27225	0.5292763
54.08878	3021.508	13.8906	-46.23996	0.5461841
54.14289	3019.044	13.74397	-46.20786	0.5613904
54.197	3016.602	13.58818	-46.17571	0.5746953
54.25111	3014.182	13.42918	-46.14325	0.5859227
54.30522	3011.783	13.27407	-46.11027	0.5949548
54.35933	3009.401	13.12952	-46.07659	0.6017127
54.41343	3007.03	12.99934	-46.04205	0.6061789
54.46754	3004.661	12.87986	-46.00655	0.6083863
54.52165	3002.289	12.76902	-45.97001	0.608431
54.57576	2999.906	12.66922	-45.93238	0.6064498
54.62987	2997.507	12.58003	-45.89367	0.6026355
54.68398	2995.09	12.49718	-45.85388	0.5972095
54.73808	2992.654	12.41685	-45.81305	0.5904141
54.79219	2990.203	12.33955	-45.77126	0.5824804
54.8463	2987.741	12.27088	-45.72861	0.5736248
54.90041	2985.273	12.21796	-45.68525	0.5640148
54.95452	2982.805	12.18313	-45.64132	0.5537781
55.00863	2980.336	12.16586	-45.59703	0.5429839
55.06273	2977.866	12.16566	-45.55257	0.5316506
55.11684	2975.394	12.17928	-45.50817	0.5197589
55.17095	2972.918	12.19954	-45.46403	0.5072426
55.22506	2970.438	12.21847	-45.42037	0.4940015
55.27916	2967.954	12.23201	-45.37737	0.4799282
55.33327	2965.465	12.24009	-45.33524	0.4649508
55.38738	2962.973	12.24543	-45.29413	0.449043
55.44149	2960.477	12.25151	-45.25421	0.4322376
55.4956	2957.978	12.25772	-45.2156	0.4146119
55.54971	2955.476	12.26096	-45.17838	0.3962772
55.60381	2952.974	12.25891	-45.14259	0.3773608
55.65792	2950.474	12.2513	-45.10821	0.3579979
55.71203	2947.977	12.24121	-45.07521	0.3383299
55.76614	2945.484	12.23564	-45.04351	0.3184918
55.82025	2942.994	12.23851	-45.01303	0.2985831
55.87436	2940.506	12.25101	-44.98366	0.2786757
55.92846	2938.019	12.27728	-44.95527	0.2587789
55.98257	2935.533	12.31953	-44.92769	0.238862
56.03668	2933.052	12.37746	-44.90076	0.218844
56.09079	2930.583	12.44663	-44.8743	0.1986652
56.1449	2928.128	12.52265	-44.84811	0.1782943
56.19901	2925.687	12.60097	-44.822	0.1578203
56.25311	2923.258	12.6757	-44.79578	0.1375788
56.30722	2920.842	12.74145	-44.76929	0.1183569
56.36133	2918.436	12.80159	-44.74236	0.1017634
56.41544	2916.037	12.85784	-44.71486	0.09065462
56.46955	2913.644	12.9099	-44.68669	0.08867397
56.52365	2911.259	12.95844	-44.65773	0.09776592
56.57776	2908.878	13.00588	-44.62791	0.116394
56.63187	2906.499	13.04949	-44.59714	0.1415255
56.68598	2904.12	13.08109	-44.56535	0.1706859
56.74009	2901.741	13.09161	-44.53247	0.2022645
56.79419	2899.362	13.07718	-44.49845	0.2351979
56.8483	2896.987	13.0415	-44.46325	0.2687381
56.90241	2894.618	12.99069	-44.42685	0.3023097
56.95652	2892.262	12.93018	-44.38927	0.3354318
57.01063	2889.917	12.86325	-44.35056	0.367678
57.06474	2887.582	12.79183	-44.31075	0.3986696
57.11884	2885.253	12.71957	-44.26995	0.4280737
57.17295	2882.927	12.64847	-44.22826	0.4556088
57.22706	2880.598	12.58264	-44.18584	0.4810473
57.28117	2878.263	12.52418	-44.14282	0.5042287
57.33528	2875.918	12.47487	-44.09938	0.5250458
57.38939	2873.561	12.43829	-44.05571	0.5434437
57.44349	2871.191	12.41684	-44.01196	0.5594179
57.4976	2868.805	12.41195	-43.96826	0.5729805
57.55171	2866.403	12.4226	-43.92471	0.5841857
57.60582	2863.984	12.44495	-43.88138	0.5930923
57.65993	2861.553	12.47216	-43.8383	0.5997866
57.71404	2859.117	12.50239	-43.79554	0.6043766
57.76814	2856.681	12.53372	-43.75316	0.6069708
57.82225	2854.249	12.56173	-43.71121	0.6077066
57.87636	2851.825	12.58387	-43.66975	0.6067185
57.93047	2849.411	12.59686	-43.6288	0.6041549
57.98458	2847.007	12.59546	-43.58838	0.6001805
58.03868	2844.616	12.57672	-43.54847	0.5949631
58.09279	2842.241	12.54294	-43.50904	0.5886929
58.1469	2839.886	12.50054	-43.47002	0.5815529
58.20101	2837.549	12.45432	-43.43136	0.5737162
58.25512	2835.226	12.4031	-43.39297	0.5653222
58.30922	2832.91	12.34723	-43.35478	0.556478
58.36333	2830.594	12.28589	-43.31673	0.5472298
58.41744	2828.27	12.21403	-43.27873	0.5375622
58.47155	2825.938	12.12549	-43.24073	0.5273905
58.52566	2823.598	12.01971	-43.20265	0.5165488
58.57977	2821.255	11.89832	-43.16442	0.5048132
58.63387	2818.906	11.76063	-43.126	0.4918883
58.68798	2816.554	11.60603	-43.08731	0.4774201
58.74209	2814.201	11.43657	-43.04829	0.461019
58.7962	2811.848	11.25887	-43.00885	0.4422994
58.85031	2809.498	11.08472	-42.96892	0.4208744
58.90442	2807.152	10.92646	-42.92841	0.3964089
58.95852	2804.814	10.79419	-42.88724	0.368623
59.01263	2802.482	10.69316	-42.84534	0.3373156
59.06674	2800.155	10.62569	-42.80264	0.3023825
59.12085	2797.832	10.58986	-42.75908	0.2638237
59.17496	2795.51	10.58045	-42.7146	0.2217602
59.22906	2793.191	10.5935	-42.66917	0.1764386
59.28317	2790.877	10.62726	-42.62275	0.1282435
59.33728	2788.572	10.68032	-42.57533	0.077847
59.39139	2786.277	10.75184	-42.52688	0.02836625
59.4455	2783.989	10.83995	-42.47742	0.03675829
59.49961	2781.708	10.94418	-42.42696	0.0903204
59.55371	2779.431	11.06341	-42.37553	0.146377
59.60782	2777.158	11.19173	-42.32319	0.2026541
59.66193	2774.885	11.323	-42.26999	0.2582577
59.71604	2772.611	11.45228	-42.21603	0.312438
59.77015	2770.336	11.57633	-42.16138	0.3645104
59.82425	2768.065	11.69312	-42.10614	0.4138376
59.87836	2765.8	11.80483	-42.05039	0.4598626
59.93247	2763.542	11.91306	-41.99421	0.5021143
59.98658	2761.29	12.01496	-41.93765	0.5401998
60.04069	2759.043	12.10745	-41.88078	0.573812
60.0948	2756.803	12.18858	-41.82362	0.6027195
60.1489	2754.567	12.25849	-41.7662	0.6267737
60.20301	2752.334	12.31662	-41.70853	0.6459072
60.25712	2750.1	12.36456	-41.65061	0.660133
60.31123	2747.862	12.40835	-41.5924	0.6695735
60.36534	2745.62	12.45366	-41.53384	0.6744412
60.41945	2743.369	12.50216	-41.47485	0.6750362
60.47355	2741.112	12.5507	-41.41531	0.6717357
60.52766	2738.848	12.59503	-41.35511	0.6649709
60.58177	2736.576	12.62991	-41.29412	0.6552266
60.63588	2734.297	12.64899	-41.23219	0.6430051
60.68999	2732.014	12.64878	-41.16918	0.6288348
60.74409	2729.731	12.62741	-41.10492	0.6132418
60.7982	2727.452	12.58924	-41.03924	0.5967516
60.85231	2725.186	12.54064	-40.97197	0.5798783
60.90642	2722.934	12.4918	-40.9029	0.5630881
60.96053	2720.699	12.45157	-40.83183	0.5467824
61.01464	2718.483	12.42723	-40.75855	0.531298
61.06874	2716.283	12.42231	-40.68283	0.5168651
61.12285	2714.095	12.43523	-40.60445	0.5036217
61.17696	2711.912	12.46193	-40.52316	0.4916045
61.23107	2709.731	12.49999	-40.43868	0.4807529
61.28518	2707.551	12.54372	-40.35077	0.4709518
61.33928	2705.371	12.5848	-40.2592	0.4620175
61.39339	2703.187	12.6134	-40.16376	0.4537268
61.4475	2700.997	12.62252	-40.06428	0.4458085
61.50161	2698.802	12.60918	-39.96063	0.4379632
61.55572	2696.608	12.57053	-39.8527	0.4298548
61.60983	2694.42	12.50408	-39.7404	0.4211345
61.66393	2692.244	12.4122	-39.62368	0.4114463
61.71804	2690.083	12.30006	-39.50252	0.4004367
61.77215	2687.939	12.17272	-39.37688	0.3877682
61.82626	2685.81	12.03559	-39.24679	0.3731584
61.88037	2683.69	11.89764	-39.11225	0.356386
61.93447	2681.572	11.76421	-38.97331	0.3373091
61.98858	2679.448	11.63686	-38.82999	0.3158628
62.04269	2677.32	11.51825	-38.68231	0.2920577
62.0968	2675.191	11.41163	-38.53027	0.265984
62.15091	2673.065	11.3187	-38.37384	0.237818
62.20502	2670.939	11.23876	-38.21292	0.2078266
62.25912	2668.813	11.17039	-38.04739	0.1763791
62.31323	2666.685	11.11327	-37.87706	0.1439748
62.36734	2664.553	11.06965	-37.70172	0.1112902
62.42145	2662.417	11.04201	-37.52112	0.07933477
62.47556	2660.278	11.02965	-37.33498	0.05024102
62.52967	2658.137	11.03064	-37.14296	0.03165365
62.58377	2656	11.04057	-36.94474	0.03896019
62.63788	2653.873	11.05592	-36.73993	0.06128332
62.69199	2651.759	11.07407	-36.52812	0.08556419
62.7461	2649.662	11.0954	-36.30884	0.1085026
62.80021	2647.587	11.11985	-36.08155	0.1290518
62.85431	2645.535	11.15069	-35.84568	0.1467105
62.90842	2643.507	11.19396	-35.60061	0.1611956
62.96253	2641.501	11.25569	-35.34565	0.172355
63.01664	2639.524	11.33668	-35.0801	0.1801316
63.07075	2637.578	11.43422	-34.80322	0.1845588
63.12486	2635.664	11.54393	-34.51422	0.1857362
63.17896	2633.78	11.65769	-34.21233	0.1838378
63.23307	2631.921	11.76831	-33.89677	0.1790808
63.28718	2630.085	11.87049	-33.56677	0.1716983
63.34129	2628.268	11.96309	-33.2216	0.1619616
63.3954	2626.469	12.04786	-32.86052	0.1501534
63.4495	2624.687	12.12683	-32.48286	0.1365758
63.50361	2622.923	12.20111	-32.08791	0.1215647
63.55772	2621.174	12.27051	-31.67501	0.1054719
63.61183	2619.438	12.3324	-31.24354	0.08865657
63.66594	2617.715	12.38315	-30.79286	0.07148631
63.72005	2616.004	12.42359	-30.32241	0.05437763
63.77415	2614.304	12.45789	-29.83165	0.0379672
63.82826	2612.62	12.49345	-29.32008	0.02412529
63.88237	2610.95	12.5362	-28.78725	0.01977274
63.93648	2609.291	12.58578	-28.23276	0.02994119
63.99059	2607.638	12.63879	-27.6562	0.04643907
64.04469	2605.988	12.69243	-27.05712	0.06538636
64.0988	2604.335	12.74542	-26.43508	0.08608244
64.15291	2602.678	12.79821	-25.78961	0.1084924
64.20702	2601.018	12.84958	-25.12016	0.1326926
64.26113	2599.363	12.89513	-24.42617	0.1587685
64.31524	2597.722	12.93024	-23.70706	0.1867409
64.36935	2596.103	12.95092	-22.9622	0.2165745
64.42345	2594.51	12.9523	-22.19092	0.2481704
64.47756	2592.946	12.93157	-21.39249	0.2813909
64.53167	2591.417	12.88624	-20.56614	0.3160623
64.58578	2589.929	12.81585	-19.711	0.3519925
64.63988	2588.485	12.72203	-18.82617	0.3889918
64.69399	2587.093	12.60941	-17.91064	0.4268495
64.7481	2585.758	12.48377	-16.96332	0.4653852
64.80221	2584.49	12.35169	-15.98304	0.5044152
64.85632	2583.29	12.21972	-14.96853	0.5437587
64.91042	2582.157	12.09496	-13.91848	0.5832341
64.96453	2581.088	11.98237	-12.83147	0.6226469
65.01865	2580.081	11.88295	-11.70605	0.6617905
65.07275	2579.131	11.79914	-10.5407	0.7004317
65.12686	2578.241	11.72862	-9.333881	0.7383214
65.18097	2577.413	11.66546	-8.084085	0.7751971
65.23508	2576.655	11.60187	-6.78979	0.810773
65.28918	2575.974	11.53166	-5.449548	0.8448404
65.34329	2575.375	11.45193	-4.061905	0.8771431
65.3974	2574.864	11.36073	-2.625458	0.9074956
65.45151	2574.446	11.26056	-1.138832	0.935712
65.50562	2574.12	11.15654	0.3993056	0.9617051
65.55972	2573.885	11.05552	1.990241	0.985437
65.61383	2573.738	10.96034	3.635216	1.00693
65.66794	2573.672	10.8742	5.335421	1.026266
65.72205	2573.683	10.80042	7.092	1.043583
65.77616	2573.764	10.74397	8.90606	1.059056
65.83027	2573.912	10.71003	10.77866	1.072891
65.88438	2574.124	10.70137	12.71088	1.085347
65.93848	2574.405	10.71187	14.70378	1.096662
65.99259	2574.763	10.73146	16.75842	1.107137
66.0467	2575.207	10.74651	18.87584	1.117053
66.10081	2575.746	10.74538	21.05712	1.126684
66.15491	2576.386	10.71911	23.30332	1.136293
66.20902	2577.132	10.66475	25.61548	1.146108
66.26313	2577.989	10.58521	27.99469	1.156361
66.31724	2578.96	10.48615	30.44203	1.167266
66.37135	2580.045	10.37433	32.95863	1.179035
66.42545	2581.244	10.25603	35.54567	1.191835
66.47956	2582.557	10.13559	38.20433	1.205941
66.53368	2583.988	10.01689	40.93587	1.221537
66.58778	2585.543	9.902678	43.74158	1.238872
66.64189	2587.233	9.7945	46.62289	1.258173
66.696	2589.064	9.69346	49.58114	1.279779
66.75011	2591.044	9.602904	52.61781	1.30403
66.80421	2593.177	9.524342	55.73444	1.331123
66.85832	2595.469	9.456451	58.93266	1.361404
66.91243	2597.929	9.39817	62.21407	1.395102
66.96654	2600.57	9.345251	65.58031	1.432325
67.02065	2603.403	9.293588	69.03311	1.473181
67.07475	2606.438	9.240495	72.57419	1.517677
67.12886	2609.682	9.184315	76.20527	1.565761
67.18297	2613.137	9.125958	79.92804	1.617277
67.23708	2616.806	9.07072	83.74415	1.671992
67.29119	2620.688	9.024766	87.6552	1.729589
67.3453	2624.783	8.993515	91.66272	1.789666
67.39941	2629.089	8.980608	95.76814	1.851738
67.45351	2633.612	8.988596	99.97277	1.915277
67.50762	2638.356	9.017421	104.2778	1.979782
67.56173	2643.329	9.063713	108.6844	2.044699
67.61584	2648.539	9.121576	113.1935	2.109605
67.66994	2653.993	9.18154	117.8058	2.174222
67.72405	2659.694	9.232194	122.522	2.238088
67.77816	2665.64	9.26298	127.3427	2.30097
67.83227	2671.833	9.267041	132.2682	2.362703
67.88638	2678.268	9.240504	137.2989	2.423173
67.94048	2684.946	9.18357	142.4349	2.48236
67.99459	2691.866	9.098705	147.6762	2.540401
68.04871	2699.032	8.98724	153.0227	2.597307
68.10281	2706.452	8.849377	158.4741	2.653289
68.15692	2714.14	8.685985	164.0301	2.708522
68.21103	2722.109	8.498493	169.6903	2.763211
68.26514	2730.375	8.294055	175.4539	2.817546
68.31924	2738.951	8.084516	181.3205	2.871646
68.37335	2747.851	7.882391	187.2892	2.925797
68.42746	2757.086	7.697656	193.3593	2.980163
68.48157	2766.664	7.535603	199.5298	3.034859
68.53568	2776.589	7.399072	205.7999	3.090078
68.58978	2786.865	7.289846	212.1683	3.146031
68.64389	2797.501	7.20548	218.6342	3.202858
68.698	2808.506	7.142995	225.1963	3.260707
68.75211	2819.891	7.099285	231.8536	3.319663
68.80622	2831.668	7.0714	238.6048	3.379748
68.86033	2843.848	7.055308	245.449	3.440889
68.91444	2856.437	7.047845	252.3848	3.503128
68.96854	2869.443	7.049517	259.4111	3.56629
69.02265	2882.867	7.063117	266.5266	3.630178
69.07676	2896.71	7.088511	273.7299	3.694569
69.13087	2910.979	7.123797	281.0197	3.759223
69.18497	2925.685	7.165319	288.3941	3.823856
69.23908	2940.841	7.208287	295.8513	3.887867
69.29319	2956.45	7.24979	303.389	3.950943
69.3473	2972.518	7.289997	311.0047	4.01255
69.40141	2989.041	7.329764	318.6955	4.072189
69.45551	3006.018	7.364071	326.4579	4.129321
69.50962	3023.448	7.384331	334.2879	4.18351
69.56374	3041.333	7.38191	342.181	4.234225
69.61784	3059.677	7.352553	350.1319	4.28102
69.67195	3078.487	7.294926	358.1348	4.323487
69.72606	3097.762	7.207441	366.183	4.36119
69.78017	3117.508	7.08937	374.2691	4.393675
69.83427	3137.725	6.940292	382.3848	4.420534
69.88838	3158.418	6.764014	390.521	4.441407
69.94249	3179.592	6.565915	398.6678	4.455946
69.9966	3201.25	6.355577	406.8142	4.463826
70.0507	3223.401	6.150187	414.9486	4.464856
70.10481	3246.047	5.969823	423.0583	4.458849
70.15892	3269.188	5.829493	431.1299	4.445759
70.21303	3292.826	5.742821	439.149	4.425494
70.26714	3316.96	5.720891	447.1005	4.398127
70.32125	3341.591	5.764341	454.9687	4.36373
70.37536	3366.719	5.864731	462.7372	4.322542
70.42947	3392.346	6.007931	470.3888	4.274779
70.48357	3418.473	6.178378	477.9061	4.220935
70.53768	3445.097	6.367306	485.271	4.161381
70.59179	3472.213	6.568638	492.4651	4.096718
70.6459	3499.813	6.780135	499.4701	4.027422
70.7	3527.89	7.004118	506.267	3.954102
70.75411	3556.444	7.247865	512.8375	3.877659
70.80822	3585.475	7.518569	519.163	3.798827
70.86233	3614.99	7.817768	525.2255	3.718449
70.91644	3644.992	8.145666	531.0071	3.637505
70.97054	3675.489	8.504976	536.4908	3.557037
71.02465	3706.486	8.898129	541.66	3.478004
71.07877	3737.99	9.327166	546.499	3.401392
71.13287	3770.006	9.791931	550.9928	3.328154
71.18698	3802.544	10.2846	555.1274	3.259132
71.24109	3835.611	10.78994	558.8899	3.195207
71.2952	3869.211	11.2915	562.2686	3.136744
71.3493	3903.348	11.77478	565.2526	3.084679
71.40341	3938.021	12.22947	567.8322	3.038963
71.45752	3973.22	12.6509	569.9991	3.000136
71.51163	4008.929	13.03413	571.7462	2.968023
71.56573	4045.132	13.37221	573.0677	2.943049
71.61984	4081.802	13.66419	573.9595	2.924649
71.67395	4118.906	13.91192	574.4177	2.912382
71.72806	4156.395	14.12166	574.4406	2.905539
71.78217	4194.214	14.29897	574.0275	2.903345
71.83628	4232.306	14.45284	573.1789	2.904761
71.89039	4270.608	14.59336	571.8964	2.908866
71.9445	4309.061	14.72829	570.1829	2.914692
71.9986	4347.597	14.86578	568.0423	2.921299
72.05271	4386.144	15.00581	565.4792	2.9278
72.10682	4424.628	15.14048	562.4998	2.933778
72.16093	4462.977	15.2606	559.1102	2.938155
72.21503	4501.123	15.3533	555.3179	2.94087
72.26914	4538.999	15.40416	551.1311	2.941628
72.32325	4576.531	15.40361	546.5589	2.940876
72.37736	4613.643	15.35047	541.6107	2.938753
72.43147	4650.254	15.25262	536.2965	2.935663
72.48557	4686.281	15.12564	530.6269	2.932081
72.53968	4721.643	14.9884	524.6133	2.928944
72.5938	4756.264	14.85884	518.2674	2.926909
72.6479	4790.074	14.74501	511.601	2.92679
72.70201	4823.016	14.65216	504.6268	2.929276
72.75612	4855.037	14.58975	497.3576	2.935014
72.81023	4886.099	14.57003	489.8069	2.944565
72.86433	4916.165	14.60136	481.9883	2.957829
72.91844	4945.21	14.68071	473.9159	2.974862
72.97255	4973.221	14.79558	465.6045	2.995418
73.02666	5000.197	14.93403	457.0689	3.018964
73.08076	5026.137	15.08902	448.325	3.044736
73.13487	5051.04	15.2533	439.3886	3.07183
73.18898	5074.906	15.41671	430.2761	3.099239
73.24309	5097.744	15.56777	421.0045	3.125901
73.2972	5119.563	15.69736	411.591	3.150651
73.35131	5140.382	15.80081	402.0533	3.172411
73.40542	5160.212	15.88288	392.4095	3.190166
73.45953	5179.072	15.95321	382.6783	3.202962
73.51363	5196.983	16.01669	372.8783	3.210021
73.56774	5213.98	16.07869	363.0287	3.21069
73.62185	5230.096	16.14273	353.1489	3.204556
73.67596	5245.368	16.20979	343.2583	3.191277
73.73006	5259.83	16.27521	333.3765	3.170607
73.78417	5273.517	16.33125	323.5229	3.142431
73.83828	5286.473	16.37769	313.7168	3.10693
73.89239	5298.748	16.41229	303.9774	3.064225
73.9465	5310.4	16.42916	294.3234	3.014594
74.0006	5321.483	16.41738	284.773	2.958433
74.05471	5332.045	16.36266	275.3438	2.896114
74.10882	5342.126	16.25568	266.0528	2.828495
74.16293	5351.771	16.08993	256.916	2.756114
74.21704	5361.019	15.8624	247.9486	2.679664
74.27115	5369.914	15.57331	239.1646	2.599863
74.32526	5378.492	15.22748	230.5769	2.517426
74.37936	5386.789	14.83394	222.1974	2.433144
74.43347	5394.83	14.40656	214.0368	2.347443
74.48758	5402.635	13.96685	206.1041	2.261057
74.54169	5410.215	13.54005	198.4074	2.174446
74.59579	5417.579	13.15136	190.9529	2.08831
74.6499	5424.724	12.81836	183.7456	2.002918
74.70401	5431.643	12.55085	176.7891	1.918517
74.75812	5438.341	12.35376	170.0852	1.835234
74.81223	5444.829	12.22785	163.6345	1.753077
74.86633	5451.115	12.16029	157.4362	1.672038
74.92045	5457.209	12.13329	151.4877	1.591573
74.97456	5463.125	12.1322	145.7858	1.511518
75.02866	5468.877	12.14759	140.3256	1.43147
75.08277	5474.469	12.17892	135.1012	1.350995
75.13688	5479.899	12.23238	130.1059	1.269745
75.19099	5485.16	12.31118	125.3319	1.186984
75.24509	5490.242	12.41472	120.7706	1.102211
75.2992	5495.146	12.54157	116.413	1.015015
75.35331	5499.873	12.69408	112.2493	0.9249891
75.40742	5504.419	12.87674	108.2696	0.8315884
75.46152	5508.787	13.09341	104.4636	0.734494
75.51563	5512.981	13.34654	100.8209	0.6335374
75.56974	5517.013	13.63308	97.33105	0.5288351
75.62385	5520.901	13.93701	93.9838	0.4209459
75.67796	5524.672	14.23504	90.76899	0.311297
75.73207	5528.346	14.49939	87.6768	0.2039893
75.78618	5531.94	14.70851	84.69769	0.1170533
75.84029	5535.467	14.84913	81.82258	0.1218251
75.89439	5538.938	14.91674	79.04277	0.2137455
75.9485	5542.37	14.91744	76.35017	0.3251151
76.00261	5545.774	14.86501	73.73713	0.4391821
76.05672	5549.161	14.77909	71.19666	0.5511612
76.11082	5552.536	14.67484	68.72233	0.6582986
76.16493	5555.904	14.56343	66.30833	0.7585611
76.21904	5559.265	14.44981	63.94955	0.8500396
76.27315	5562.614	14.33879	61.64156	0.9309955
76.32726	5565.941	14.23472	59.3806	0.9998212
76.38136	5569.237	14.13832	57.16359	1.055016
76.43548	5572.491	14.05021	54.98806	1.095205
76.48959	5575.698	13.96648	52.8522	1.119136
76.54369	5578.86	13.88436	50.75471	1.125752
76.5978	5581.975	13.80382	48.69478	1.114178
76.65191	5585.023	13.72989	46.67196	1.08376
76.70602	5587.985	13.66873	44.68618	1.034069
76.76012	5590.847	13.6291	42.73761	0.9649006
76.81423	5593.6	13.61797	40.82667	0.8763063
76.86834	5596.232	13.6412	38.95399	0.7685886
76.92245	5598.741	13.70033	37.12033	0.6423002
76.97655	5601.129	13.79449	35.32657	0.4982854
77.03066	5603.405	13.91829	33.57361	0.3379198
77.08477	5605.572	14.06779	31.86234	0.164786
77.13888	5607.627	14.23488	30.19355	0.06381401
77.19299	5609.548	14.40782	28.56799	0.2471907
77.2471	5611.311	14.57583	26.98633	0.4615073
77.30121	5612.898	14.73052	25.44919	0.687313
77.35532	5614.297	14.86626	23.95704	0.9215624
77.40942	5615.5	14.97901	22.51028	1.162071
77.46353	5616.505	15.07084	21.10919	1.406792
77.51764	5617.312	15.15668	19.754	1.653724
77.57175	5617.917	15.25514	18.44489	1.900964
77.62585	5618.323	15.3851	17.18196	2.146776
77.67996	5618.533	15.55804	15.96531	2.389518
77.73407	5618.555	15.77788	14.79506	2.627789
77.78818	5618.407	16.03702	13.67125	2.860335
77.84229	5618.109	16.32246	12.59395	3.086101
77.89639	5617.682	16.62249	11.56317	3.304221
77.95051	5617.14	16.92752	10.57894	3.514011
78.00462	5616.492	17.22803	9.641319	3.714984
78.05872	5615.746	17.50888	8.750394	3.906823
78.11283	5614.907	17.74644	7.906329	4.089378
78.16694	5613.984	17.91074	7.109378	4.262639
78.22105	5612.979	17.9752	6.359881	4.426739
78.27515	5611.904	17.92601	5.658395	4.581767
78.32926	5610.769	17.7592	5.00556	4.727991
78.38337	5609.587	17.48526	4.402061	4.865874
78.43748	5608.366	17.12574	3.848755	4.995798
78.49158	5607.116	16.70893	3.346543	5.118254
78.54569	5605.856	16.2546	2.896274	5.233699
78.5998	5604.615	15.77843	2.498858	5.342652
78.65391	5603.413	15.29006	2.155147	5.445606
78.70802	5602.268	14.79175	1.865941	5.542998
78.76213	5601.198	14.2852	1.631957	5.635213
78.81624	5600.218	13.77186	1.453807	5.722567
78.87035	5599.339	13.25024	1.331943	5.805309
78.92445	5598.57	12.72096	1.266696	5.883698
78.97856	5597.915	12.19368	1.258092	5.957935
79.03267	5597.377	11.68295	1.306012	6.028005
79.08678	5596.964	11.20344	1.409992	6.093902
79.14088	5596.672	10.77207	1.56923	6.155595
79.19499	5596.493	10.4027	1.782735	6.212795
79.2491	5596.414	10.10725	2.049224	6.26515
79.30321	5596.426	9.893651	2.367125	6.312207
79.35732	5596.524	9.75738	2.734547	6.353423
79.41142	5596.709	9.679435	3.149313	6.388162
79.46554	5596.984	9.638138	3.608979	6.41569
79.51965	5597.357	9.617856	4.110828	6.435204
79.57375	5597.826	9.609295	4.65189	6.445854
79.62786	5598.378	9.603452	5.228966	6.446791
79.68197	5598.998	9.595986	5.838662	6.437207
79.73608	5599.67	9.587737	6.477419	6.416365
79.79018	5600.394	9.584311	7.141556	6.383514
79.84429	5601.166	9.589112	7.827234	6.338034
79.8984	5601.981	9.603051	8.530475	6.27941
79.95251	5602.825	9.62357	9.247244	6.207217
80.00661	5603.689	9.642982	9.973488	6.121192
80.06072	5604.568	9.652859	10.7052	6.021255
80.11483	5605.462	9.648747	11.43845	5.90753
80.16894	5606.361	9.627117	12.16946	5.780351
80.22305	5607.26	9.587605	12.8946	5.640265
80.27716	5608.148	9.533392	13.61046	5.488028
80.33127	5609.027	9.471619	14.31379	5.324609
80.38538	5609.896	9.410647	15.00161	5.151182
80.43948	5610.759	9.364769	15.67113	4.96911
80.49359	5611.613	9.350562	16.31983	4.779931
80.5477	5612.474	9.379062	16.94544	4.585382
80.60181	5613.364	9.455641	17.546	4.387261
80.65591	5614.304	9.586541	18.11984	4.187388
80.71002	5615.308	9.774071	18.66558	3.987678
80.76413	5616.385	10.00985	19.18216	3.790078
80.81824	5617.546	10.27925	19.66878	3.596621
80.87234	5618.797	10.56567	20.1249	3.409418
80.92645	5620.14	10.84915	20.5502	3.230612
80.98057	5621.576	11.11952	20.94456	3.062396
81.03468	5623.104	11.37407	21.30801	2.906827
81.08878	5624.716	11.62083	21.64074	2.765807
81.14289	5626.399	11.87696	21.94303	2.640941
81.197	5628.137	12.16148	22.21527	2.533418
81.25111	5629.913	12.48961	22.45794	2.443861
81.30521	5631.708	12.87085	22.67151	2.372281
81.35932	5633.504	13.30672	22.85637	2.317883
81.41343	5635.287	13.78423	23.01296	2.279214
81.46754	5637.051	14.28537	23.14156	2.25422
81.52164	5638.796	14.79303	23.24238	2.24042
81.57575	5640.521	15.29259	23.31555	2.23516
81.62986	5642.219	15.77038	23.36111	2.235839
81.68397	5643.888	16.21505	23.37904	2.240051
81.73808	5645.532	16.61508	23.36927	2.245669
81.79219	5647.159	16.95431	23.33159	2.250885
81.8463	5648.777	17.22409	23.26568	2.254217
81.90041	5650.384	17.42344	23.17109	2.254507
81.95451	5651.974	17.55656	23.04725	2.250901
82.00862	5653.541	17.62955	22.89351	2.242807
82.06273	5655.081	17.6499	22.70914	2.229825
82.11684	5656.585	17.63163	22.49343	2.211704
82.17094	5658.047	17.59308	22.24564	2.188374
82.22505	5659.458	17.55421	21.96508	2.159888
82.27916	5660.816	17.5224	21.65099	2.126447
82.33327	5662.123	17.49097	21.30266	2.088392
82.38737	5663.381	17.44806	20.91935	2.046192
82.44148	5664.591	17.38446	20.5004	2.000439
82.4956	5665.757	17.29709	20.04526	1.951823
82.54971	5666.89	17.18618	19.55347	1.901095
82.60381	5668.002	17.05211	19.02471	1.849116
82.65792	5669.105	16.89716	18.45882	1.796807
82.71203	5670.206	16.72241	17.85578	1.745165
82.76614	5671.309	16.53244	17.21575	1.695242
82.82024	5672.416	16.33331	16.53905	1.648062
82.87435	5673.526	16.13611	15.82619	1.604655
82.92846	5674.635	15.95027	15.0778	1.565938
82.98257	5675.731	15.78466	14.29472	1.532734
83.03667	5676.797	15.64585	13.47786	1.505633
83.09078	5677.82	15.53741	12.6283	1.485026
83.14489	5678.785	15.45759	11.74717	1.471045
83.199	5679.691	15.40039	10.83566	1.463518
83.25311	5680.54	15.35756	9.895008	1.461965
83.30722	5681.344	15.32723	8.9264	1.465611
83.36133	5682.115	15.30882	7.93098	1.473443
83.41544	5682.864	15.29997	6.909837	1.484288
83.46954	5683.594	15.29473	5.863986	1.496923
83.52365	5684.308	15.28882	4.794417	1.510153
83.57776	5684.997	15.28049	3.702054	1.522785
83.63187	5685.656	15.27904	2.587825	1.533767
83.68597	5686.27	15.294	1.452603	1.542122
83.74008	5686.832	15.3305	0.2972185	1.54708
83.79419	5687.322	15.38585	-0.8775923	1.547971
83.8483	5687.721	15.4528	-2.07118	1.544328
83.9024	5688.003	15.52672	-3.282979	1.53587
83.95651	5688.161	15.60224	-4.512483	1.522473
84.01063	5688.189	15.67006	-5.75924	1.504151
84.06474	5688.092	15.72276	-7.022817	1.481022
84.11884	5687.875	15.76084	-8.30279	1.453271
84.17295	5687.553	15.79233	-9.598737	1.421135
84.22706	5687.137	15.82481	-10.91027	1.384904
84.28117	5686.639	15.86055	-12.23702	1.344921
84.33527	5686.052	15.89576	-13.5787	1.301553
84.38938	5685.37	15.92147	-14.93496	1.255253
84.44349	5684.58	15.92653	-16.30548	1.206492
84.4976	5683.673	15.91099	-17.68985	1.155794
84.5517	5682.644	15.87965	-19.08767	1.103706
84.60581	5681.494	15.83946	-20.49843	1.050837
84.65992	5680.229	15.79902	-21.92157	0.9979064
84.71403	5678.856	15.76416	-23.3564	0.9457399
84.76814	5677.378	15.73646	-24.80211	0.8952683
84.82225	5675.803	15.71278	-26.2578	0.8475238
84.87636	5674.137	15.68584	-27.72244	0.803606
84.93047	5672.394	15.64854	-29.19491	0.764651
84.98457	5670.585	15.59892	-30.67398	0.7317625
85.03868	5668.726	15.53709	-32.15832	0.7059102
85.09279	5666.819	15.46609	-33.64658	0.6878098
85.1469	5664.856	15.39219	-35.13735	0.6778055
85.201	5662.828	15.32083	-36.62923	0.6757887
85.25511	5660.719	15.26009	-38.12078	0.6812195
85.30922	5658.519	15.21565	-39.6106	0.6932349
85.36333	5656.223	15.19508	-41.09732	0.7108011
85.41743	5653.826	15.19934	-42.57967	0.7328515
85.47154	5651.324	15.2259	-44.0564	0.7584165
85.52566	5648.717	15.2664	-45.52634	0.7866831
85.57977	5646.009	15.31077	-46.98837	0.817034
85.63387	5643.208	15.34997	-48.44144	0.8490303
85.68798	5640.331	15.37908	-49.88457	0.8823683
85.74209	5637.395	15.39487	-51.31689	0.9168745
85.7962	5634.416	15.39224	-52.73763	0.9524665
85.8503	5631.4	15.37511	-54.14609	0.9891249
85.90441	5628.349	15.35124	-55.54166	1.026863
85.95852	5625.246	15.32724	-56.92375	1.065718
86.01263	5622.077	15.30838	-58.29183	1.105716
86.06673	5618.831	15.30109	-59.64536	1.146881
86.12084	5615.503	15.31408	-60.98386	1.189213
86.17495	5612.09	15.35427	-62.30687	1.232704
86.22906	5608.59	15.42448	-63.61402	1.277316
86.28317	5605.003	15.52607	-64.90492	1.323028
86.33728	5601.327	15.65178	-66.17927	1.369841
86.39139	5597.555	15.79091	-67.43674	1.41777
86.4455	5593.683	15.93421	-68.67706	1.466812
86.4996	5589.709	16.07109	-69.9	1.516944
86.55371	5585.638	16.19458	-71.10533	1.568096
86.60782	5581.477	16.30624	-72.29281	1.620216
86.66193	5577.242	16.41228	-73.46218	1.673195
86.71603	5572.951	16.5249	-74.61315	1.726921
86.77014	5568.614	16.6539	-75.74541	1.781235
86.82425	5564.233	16.80634	-76.85857	1.83598
86.87836	5559.803	16.98599	-77.95219	1.890956
86.93246	5555.321	17.19835	-79.02577	1.945928
86.98657	5550.776	17.44243	-80.07879	2.000653
87.04069	5546.162	17.71098	-81.11069	2.054899
87.0948	5541.478	17.99072	-82.1209	2.108454
87.1489	5536.731	18.26255	-83.10886	2.161128
87.20301	5531.93	18.51039	-84.07397	2.212732
87.25712	5527.084	18.72185	-85.0157	2.263059
87.31123	5522.199	18.88857	-85.93353	2.311918
87.36533	5517.278	19.0059	-86.82696	2.359099
87.41944	5512.326	19.07135	-87.69556	2.404457
87.47355	5507.343	19.08989	-88.53896	2.447845
87.52766	5502.33	19.07511	-89.35684	2.489152
87.58176	5497.287	19.04375	-90.14898	2.528325
87.63587	5492.211	19.01336	-90.91521	2.565341
87.68998	5487.102	18.99791	-91.65553	2.600191
87.74409	5481.955	18.99861	-92.36997	2.632895
87.7982	5476.774	19.01211	-93.05877	2.663505
87.85231	5471.55	19.02994	-93.72221	2.692081
87.90642	5466.271	19.0434	-94.36071	2.718691
87.96053	5460.918	19.04556	-94.97475	2.743395
88.01463	5455.484	19.03493	-95.56487	2.766276
88.06874	5449.968	19.01488	-96.13172	2.787429
88.12285	5444.374	18.99466	-96.67604	2.806966
88.17696	5438.711	18.97896	-97.19862	2.825025
88.23106	5432.999	18.97204	-97.70038	2.841763
88.28517	5427.25	18.97612	-98.18225	2.857332
88.33928	5421.481	18.99237	-98.64523	2.871915
88.39339	5415.697	19.01846	-99.09033	2.885653
88.44749	5409.909	19.04632	-99.51857	2.898658
88.5016	5404.124	19.06594	-99.93096	2.910974
88.55572	5398.344	19.07319	-100.3285	2.922619
88.60983	5392.562	19.06627	-100.7121	2.933529
88.66393	5386.772	19.04749	-101.0826	2.943619
88.71804	5380.968	19.01771	-101.4408	2.952779
88.77215	5375.15	18.9784	-101.7874	2.960825
88.82626	5369.324	18.93028	-102.1229	2.967533
88.88036	5363.507	18.87794	-102.448	2.97264
88.93447	5357.705	18.82592	-102.763	2.97586
88.98858	5351.92	18.7791	-103.0683	2.976879
89.04269	5346.151	18.74218	-103.3642	2.975422
89.09679	5340.401	18.71644	-103.6509	2.971251
89.1509	5334.671	18.70399	-103.9289	2.96418
89.20501	5328.972	18.70512	-104.1982	2.954029
89.25912	5323.313	18.71653	-104.4592	2.940665
89.31323	5317.701	18.73127	-104.7122	2.923966
89.36734	5312.134	18.7401	-104.9574	2.903836
89.42145	5306.602	18.73037	-105.1951	2.880194
89.47556	5301.087	18.68993	-105.4257	2.853
89.52966	5295.576	18.6154	-105.6494	2.822215
89.58377	5290.055	18.5118	-105.8667	2.787823
89.63788	5284.519	18.38892	-106.078	2.749808
89.69199	5278.969	18.25535	-106.2836	2.708163
89.74609	5273.41	18.12123	-106.4841	2.662918
89.8002	5267.841	17.99972	-106.68	2.614136
89.85431	5262.264	17.90222	-106.872	2.561927
89.90842	5256.68	17.83642	-107.0606	2.506441
89.96252	5251.093	17.8043	-107.2465	2.447889
90.01663	5245.507	17.80566	-107.4302	2.386507
90.07075	5239.919	17.83964	-107.6126	2.32258
90.12486	5234.33	17.90235	-107.7944	2.256413
90.17896	5228.733	17.9844	-107.9762	2.188378
90.23307	5223.117	18.0776	-108.159	2.118863
90.28718	5217.466	18.17885	-108.3434	2.048333
90.34129	5211.765	18.28568	-108.5303	1.977252
90.39539	5205.999	18.38884	-108.7205	1.906106
90.4495	5200.168	18.47949	-108.9145	1.835352
90.50361	5194.28	18.55609	-109.1131	1.765441
90.55772	5188.343	18.62556	-109.3167	1.696864
90.61182	5182.366	18.69987	-109.5256	1.630091
90.66593	5176.348	18.78909	-109.7402	1.565596
90.72004	5170.288	18.90232	-109.9606	1.503889
90.77415	5164.189	19.04567	-110.1871	1.445481
90.82826	5158.057	19.22263	-110.4195	1.390899
90.88237	5151.896	19.4326	-110.6577	1.340671
90.93648	5145.71	19.66739	-110.9015	1.295319
90.99059	5139.507	19.91492	-111.1504	1.255321
91.04469	5133.293	20.15622	-111.4039	1.221136
91.0988	5127.081	20.36904	-111.6611	1.193139
91.15291	5120.878	20.53714	-111.9214	1.171628
91.20702	5114.698	20.65141	-112.1838	1.156737
91.26112	5108.543	20.70952	-112.4472	1.14845
91.31523	5102.415	20.71857	-112.7104	1.146557
91.36934	5096.306	20.69065	-112.9725	1.150695
91.42345	5090.209	20.63983	-113.2323	1.160352
91.47755	5084.117	20.57975	-113.4887	1.174904
91.53166	5078.023	20.52425	-113.7406	1.193631
91.58578	5071.919	20.48189	-113.9869	1.215757
91.63988	5065.808	20.45891	-114.2266	1.240508
91.69399	5059.687	20.45739	-114.4588	1.267149
91.7481	5053.555	20.47408	-114.6826	1.295006
91.80221	5047.406	20.49503	-114.8974	1.323512
91.85632	5041.24	20.50641	-115.1023	1.352204
91.91042	5035.048	20.49869	-115.297	1.38071
91.96453	5028.831	20.46888	-115.481	1.408762
92.01864	5022.584	20.41622	-115.6539	1.436179
92.07275	5016.313	20.34715	-115.8155	1.462825
92.12685	5010.013	20.26811	-115.9658	1.488666
92.18096	5003.689	20.18409	-116.1046	1.513729
92.23507	4997.336	20.10163	-116.2322	1.538126
92.28918	4990.954	20.03405	-116.3486	1.562044
92.34329	4984.534	19.98881	-116.4542	1.585707
92.3974	4978.071	19.96519	-116.5491	1.609389
92.45151	4971.563	19.95877	-116.556	1.665607
92.50562	4965.014	19.96935	-116.5552	1.722215
92.55972	4958.428	19.99813	-116.5495	1.779222
92.61383	4951.817	20.04274	-116.5413	1.836527
92.66794	4945.19	20.09687	-116.5323	1.894105
92.72205	4938.569	20.15125	-116.5234	1.952009
92.77615	4931.969	20.20045	-116.5149	2.010343
92.83026	4925.405	20.2492	-116.507	2.069215
92.88437	4918.879	20.30935	-116.4996	2.128761
92.93848	4912.391	20.39368	-116.4928	2.1891
92.99258	4905.925	20.51335	-116.4862	2.250341
93.04669	4899.474	20.67323	-116.4796	2.312589
93.10081	4893.03	20.8722	-116.473	2.375946
93.15491	4886.591	21.10417	-116.4661	2.440493
93.20902	4880.146	21.36197	-116.4588	2.506307
93.26313	4873.688	21.63673	-116.4509	2.573458
93.31724	4867.21	21.91572	-116.4424	2.641998
93.37135	4860.712	22.18982	-116.433	2.711982
93.42545	4854.199	22.44868	-116.4227	2.783443
93.47956	4847.683	22.6837	-116.4113	2.856408
93.53367	4841.179	22.89266	-116.3987	2.930904
93.58778	4834.712	23.0814	-116.385	3.00694
93.64188	4828.294	23.25794	-116.3699	3.08453
93.69599	4821.929	23.42768	-116.3533	3.163679
93.7501	4815.613	23.5875	-116.3353	3.244377
93.80421	4809.351	23.73176	-116.3158	3.326619
93.85832	4803.132	23.85395	-116.2947	3.41039
93.91243	4796.948	23.95027	-116.2719	3.495675
93.96654	4790.78	24.02013	-116.2475	3.582453
94.02065	4784.612	24.06268	-116.2214	3.670694
94.07475	4778.438	24.07742	-116.1936	3.760358
94.12886	4772.35	23.99307	-116.1641	3.851426
94.18297	4766.257	23.90737	-116.1328	3.943842
94.23708	4760.169	23.82146	-116.0998	4.037578
94.29118	4754.093	23.73577	-116.065	4.132586
94.34529	4748.031	23.64957	-116.0284	4.228831
94.3994	4741.985	23.56344	-115.9902	4.326268
94.45351	4735.953	23.47778	-115.9502	4.424854
94.50761	4729.936	23.39276	-115.9085	4.524546
94.56172	4723.931	23.30778	-115.8651	4.625302
94.61584	4717.935	23.22231	-115.8201	4.727073
94.66994	4711.947	23.13648	-115.7735	4.829831
94.72405	4705.965	23.05039	-115.7253	4.933519
94.77816	4699.986	22.96474	-115.6755	5.038107
94.83227	4694.01	22.87954	-115.6242	5.143541
94.88638	4688.035	22.79491	-115.5715	5.249802
94.94048	4682.061	22.7101	-115.5174	5.356841
94.99459	4676.088	22.62519	-115.4619	5.464624
