T[Â°C]	330nm [counts / mm]	S.D.	First derivative	S.D. of first derivative
20.00094	3626.109	31.33296	-52.25897	2.247869
20.05489	3623.246	31.43167	-52.21788	2.186436
20.10884	3620.384	31.5246	-52.1769	2.125616
20.16279	3617.521	31.61119	-52.13603	2.065423
20.21674	3614.658	31.69128	-52.09527	2.005881
20.27069	3611.796	31.76431	-52.05462	1.947001
20.32465	3608.932	31.83004	-52.01409	1.888808
20.3786	3606.068	31.88844	-51.97367	1.831316
20.43255	3603.202	31.94	-51.93338	1.774544
20.4865	3600.334	31.98508	-51.8932	1.718508
20.54045	3597.466	32.02485	-51.85313	1.663226
20.5944	3594.596	32.061	-51.81319	1.60872
20.64835	3591.727	32.0952	-51.77335	1.555002
20.7023	3588.859	32.13088	-51.73362	1.502093
20.75625	3585.993	32.17165	-51.694	1.450005
20.8102	3583.132	32.22184	-51.65447	1.398759
20.86415	3580.277	32.28557	-51.61503	1.34837
20.9181	3577.432	32.36352	-51.57567	1.298854
20.97205	3574.602	32.44292	-51.53638	1.250228
21.026	3571.818	32.43508	-51.49714	1.202509
21.07995	3569.043	32.42104	-51.45794	1.155713
21.1339	3566.274	32.39532	-51.41876	1.109858
21.18785	3563.507	32.34851	-51.37959	1.06496
21.2418	3560.743	32.27413	-51.3404	1.02104
21.29575	3557.98	32.17145	-51.30117	0.9781188
21.3497	3555.217	32.04173	-51.26189	0.9362117
21.40366	3552.458	31.88354	-51.22253	0.8953475
21.45761	3549.707	31.69824	-51.18308	0.8555483
21.51156	3546.97	31.49158	-51.1435	0.8168517
21.56551	3544.256	31.27376	-51.10379	0.7792916
21.61946	3541.574	31.05556	-51.0639	0.7429119
21.67341	3538.923	30.84169	-51.02384	0.7077775
21.72736	3536.289	30.63052	-50.98357	0.6739582
21.78131	3533.654	30.42083	-50.94307	0.6415469
21.83526	3531.008	30.2125	-50.90232	0.6106611
21.88921	3528.346	30.0067	-50.86129	0.5814391
21.94316	3525.67	29.80572	-50.81997	0.5540591
21.99711	3522.984	29.61533	-50.77833	0.5287318
22.05106	3520.295	29.44564	-50.73636	0.5057048
22.10501	3517.61	29.30638	-50.69405	0.485275
22.15896	3514.928	29.199	-50.65139	0.4677629
22.21291	3512.243	29.1184	-50.6084	0.4535003
22.26686	3509.545	29.05682	-50.56511	0.4427787
22.32081	3506.828	29.00497	-50.52156	0.4357883
22.37476	3504.095	28.96015	-50.47783	0.4324988
22.42871	3501.349	28.93063	-50.43408	0.4325313
22.48266	3498.595	28.92493	-50.3905	0.4350064
22.53662	3495.832	28.94693	-50.34741	0.4384543
22.59057	3493.056	28.99942	-50.30519	0.4409575
22.64452	3490.26	29.08578	-50.26747	0.4524566
22.69847	3487.445	29.20454	-50.23179	0.4642799
22.75242	3484.612	29.35223	-50.19828	0.4762992
22.80637	3481.769	29.52018	-50.16703	0.488398
22.86032	3478.927	29.70096	-50.13807	0.5004646
22.91427	3476.102	29.8897	-50.11137	0.5124005
22.96822	3473.305	30.08408	-50.08691	0.524119
23.02217	3470.538	30.2835	-50.06455	0.5355614
23.07612	3467.794	30.4831	-50.04418	0.5466871
23.13007	3465.071	30.67349	-50.02562	0.5574918
23.18402	3462.363	30.8455	-50.00869	0.5679944
23.23797	3459.667	30.99551	-49.99317	0.5782643
23.29192	3456.98	31.12577	-49.97881	0.5883999
23.34587	3454.301	31.23687	-49.96535	0.5985441
23.39982	3451.624	31.32449	-49.9525	0.6088766
23.45377	3448.942	31.38452	-49.93996	0.6195967
23.50772	3446.255	31.41361	-49.9274	0.6309096
23.56167	3443.568	31.41257	-49.91448	0.6430237
23.61563	3440.893	31.38811	-49.90089	0.6561109
23.66958	3438.236	31.35014	-49.88633	0.670314
23.72353	3435.6	31.30568	-49.87055	0.6857167
23.77748	3432.993	31.25865	-49.85333	0.7023483
23.83143	3430.415	31.21127	-49.83448	0.7201992
23.88538	3427.86	31.16104	-49.81382	0.7392018
23.93933	3425.315	31.10368	-49.79121	0.7592282
23.99328	3422.77	31.03439	-49.76653	0.7800997
24.04723	3420.219	30.95482	-49.73967	0.8016295
24.10118	3417.66	30.86996	-49.71059	0.8236086
24.15513	3415.091	30.78291	-49.67928	0.8458348
24.20908	3412.507	30.69282	-49.64577	0.8680941
24.26303	3409.9	30.59503	-49.61013	0.8901863
24.31698	3407.259	30.4819	-49.57249	0.911911
24.37093	3404.585	30.34801	-49.53307	0.9330831
24.42488	3401.88	30.19227	-49.49215	0.9535319
24.47883	3399.153	30.01825	-49.45007	0.9731096
24.53278	3396.413	29.83359	-49.40719	0.9917129
24.58673	3393.673	29.64362	-49.36392	1.009275
24.64068	3390.944	29.4501	-49.32066	1.025755
24.69464	3388.232	29.25515	-49.27779	1.041112
24.74859	3385.537	29.05792	-49.23568	1.055299
24.80254	3382.849	28.85857	-49.19463	1.068254
24.85649	3380.159	28.65778	-49.15493	1.079896
24.91044	3377.461	28.45842	-49.11679	1.09013
24.96439	3374.752	28.26517	-49.08038	1.098867
25.01834	3372.029	28.08117	-49.04581	1.106004
25.07229	3369.292	27.90613	-49.01314	1.111434
25.12624	3366.545	27.73614	-48.9824	1.115011
25.18019	3363.787	27.5694	-48.95357	1.116594
25.23414	3361.023	27.40617	-48.92663	1.116034
25.28809	3358.26	27.24843	-48.90153	1.113215
25.34204	3355.507	27.10003	-48.87821	1.108069
25.39599	3352.772	26.96439	-48.8566	1.100596
25.44994	3350.063	26.84618	-48.8366	1.090865
25.50389	3347.384	26.74541	-48.81811	1.079012
25.55784	3344.741	26.65994	-48.80098	1.065204
25.61179	3342.129	26.59176	-48.78509	1.04963
25.66574	3339.544	26.54545	-48.77026	1.032478
25.71969	3336.976	26.52443	-48.75635	1.01392
25.77365	3334.416	26.53355	-48.74319	0.9941416
25.8276	3331.851	26.57507	-48.73061	0.9733285
25.88155	3329.269	26.64615	-48.71843	0.951658
25.9355	3326.665	26.73931	-48.70649	0.9292928
25.98945	3324.043	26.84579	-48.69458	0.9063818
26.0434	3321.413	26.95726	-48.68253	0.8830878
26.09735	3318.785	27.0687	-48.67019	0.8595752
26.1513	3316.172	27.1771	-48.65741	0.8360223
26.20525	3313.586	27.281	-48.64407	0.8126197
26.2592	3311.03	27.38142	-48.63004	0.7895542
26.31315	3308.503	27.47639	-48.61524	0.767015
26.3671	3305.997	27.56083	-48.59959	0.7451703
26.42105	3303.505	27.62891	-48.58307	0.7241612
26.475	3301.02	27.68141	-48.56569	0.7041178
26.52895	3298.535	27.72243	-48.5475	0.685186
26.5829	3296.043	27.75288	-48.52863	0.6675357
26.63685	3293.538	27.77278	-48.50917	0.6513615
26.6908	3291.017	27.7795	-48.48922	0.6368615
26.74475	3288.478	27.77138	-48.4689	0.6242079
26.7987	3285.919	27.74649	-48.44829	0.6135476
26.85266	3283.341	27.70739	-48.42747	0.6049886
26.9066	3280.745	27.66136	-48.40656	0.5985861
26.96056	3278.135	27.61796	-48.38561	0.5943545
27.01451	3275.516	27.58506	-48.36472	0.5922641
27.06846	3272.893	27.56147	-48.34393	0.5922296
27.12241	3270.272	27.53998	-48.32328	0.5941204
27.17636	3267.656	27.51017	-48.3028	0.5977557
27.23031	3265.046	27.46146	-48.28247	0.6029376
27.28426	3262.436	27.38883	-48.26224	0.6094638
27.33821	3259.822	27.29567	-48.24201	0.6171422
27.39216	3257.197	27.19462	-48.22167	0.625796
27.44611	3254.558	27.09994	-48.20106	0.6352674
27.50006	3251.902	27.01926	-48.18005	0.6454182
27.55401	3249.229	26.95352	-48.1585	0.6560972
27.60796	3246.54	26.90118	-48.13627	0.667155
27.66191	3243.841	26.85951	-48.11327	0.678415
27.71586	3241.135	26.82798	-48.08939	0.6896947
27.76981	3238.429	26.80464	-48.06459	0.7008256
27.82376	3235.728	26.78382	-48.0388	0.7116573
27.87771	3233.037	26.75567	-48.01199	0.7220779
27.93167	3230.363	26.70741	-47.98417	0.7320116
27.98561	3227.709	26.62946	-47.95531	0.741413
28.03957	3225.076	26.51815	-47.92545	0.7502866
28.09352	3222.458	26.37694	-47.8946	0.7586507
28.14747	3219.852	26.21328	-47.8628	0.7665479
28.20142	3217.252	26.03873	-47.8301	0.7740375
28.25537	3214.657	25.86974	-47.79651	0.781181
28.30932	3212.06	25.72051	-47.76207	0.788019
28.36327	3209.458	25.59556	-47.72678	0.7945738
28.41722	3206.848	25.49641	-47.69067	0.8008292
28.47117	3204.229	25.42532	-47.65376	0.8067312
28.52512	3201.607	25.38332	-47.61611	0.8121895
28.57907	3198.986	25.36632	-47.57779	0.8170863
28.63302	3196.368	25.36628	-47.5389	0.8212851
28.68697	3193.755	25.37444	-47.49951	0.8246406
28.74092	3191.15	25.37995	-47.45972	0.8270137
28.79487	3188.556	25.36936	-47.41959	0.8282757
28.84882	3185.98	25.33025	-47.37922	0.8283095
28.90277	3183.426	25.26234	-47.33875	0.8270045
28.95672	3180.893	25.17983	-47.29831	0.8242749
29.01068	3178.375	25.10221	-47.25807	0.8200658
29.06462	3175.862	25.04634	-47.21824	0.8143677
29.11858	3173.348	25.02028	-47.17901	0.8072198
29.17253	3170.831	25.02264	-47.14058	0.7987195
29.22648	3168.313	25.04608	-47.10313	0.7890377
29.28043	3165.798	25.08495	-47.06678	0.7783986
29.33438	3163.289	25.13601	-47.03164	0.767084
29.38833	3160.785	25.19753	-46.9978	0.7554206
29.44228	3158.285	25.26751	-46.96529	0.7437687
29.49623	3155.793	25.34378	-46.93416	0.732532
29.55018	3153.317	25.4169	-46.90446	0.7221339
29.60413	3150.861	25.47307	-46.87623	0.7129881
29.65808	3148.423	25.50258	-46.8495	0.7054717
29.71203	3145.998	25.50248	-46.82433	0.6999124
29.76598	3143.583	25.47715	-46.80072	0.6965713
29.81993	3141.172	25.43728	-46.77869	0.6956553
29.87388	3138.764	25.39272	-46.75827	0.6972834
29.92783	3136.355	25.35137	-46.73947	0.7014766
29.98178	3133.946	25.32049	-46.72232	0.7081478
30.03573	3131.534	25.30692	-46.70687	0.7170844
30.08969	3129.116	25.3131	-46.69313	0.7279772
30.14363	3126.686	25.33724	-46.6811	0.7404374
30.19759	3124.239	25.37654	-46.67074	0.754047
30.25154	3121.772	25.42687	-46.66195	0.7683693
30.30549	3119.286	25.47962	-46.65462	0.7829728
30.35944	3116.785	25.52186	-46.64859	0.7974361
30.41339	3114.272	25.54153	-46.6437	0.8113431
30.46734	3111.753	25.53159	-46.63976	0.8242947
30.52129	3109.23	25.4894	-46.6366	0.835929
30.57524	3106.705	25.41529	-46.63401	0.8459272
30.62919	3104.177	25.31509	-46.63181	0.854004
30.68314	3101.644	25.19772	-46.62975	0.8599114
30.73709	3099.103	25.07272	-46.62762	0.8634244
30.79104	3096.553	24.9435	-46.62515	0.8643402
30.84499	3093.994	24.81326	-46.6221	0.8624733
30.89894	3091.426	24.68839	-46.61826	0.8576734
30.95289	3088.851	24.57813	-46.61342	0.8498204
31.00684	3086.27	24.49031	-46.60741	0.838861
31.06079	3083.686	24.42888	-46.60011	0.8247828
31.11474	3081.097	24.39153	-46.59137	0.8076114
31.1687	3078.506	24.36565	-46.58102	0.7874185
31.22264	3075.915	24.33676	-46.56892	0.7643031
31.2766	3073.334	24.29011	-46.5549	0.738402
31.33055	3070.769	24.21109	-46.53887	0.7099028
31.3845	3068.219	24.09114	-46.52075	0.6790434
31.43845	3065.679	23.93171	-46.5005	0.6461218
31.4924	3063.147	23.7414	-46.4781	0.6114813
31.54635	3060.624	23.532	-46.45357	0.5754991
31.6003	3058.104	23.31712	-46.4269	0.538522
31.65425	3055.585	23.11085	-46.39811	0.5008816
31.7082	3053.063	22.92442	-46.36724	0.4628704
31.76215	3050.538	22.76717	-46.33431	0.4247771
31.8161	3048.009	22.64569	-46.29935	0.3869003
31.87005	3045.474	22.56141	-46.26241	0.3495626
31.924	3042.934	22.51021	-46.22356	0.3131289
31.97795	3040.385	22.48508	-46.18288	0.2780075
32.0319	3037.831	22.47602	-46.14048	0.2447115
32.08585	3035.271	22.47282	-46.09652	0.2138906
32.1398	3032.706	22.46578	-46.05116	0.1864443
32.19376	3030.137	22.45554	-46.00457	0.1636389
32.2477	3027.568	22.44483	-45.95696	0.1470863
32.30165	3025	22.43348	-45.90855	0.1383857
32.35561	3022.434	22.41829	-45.85957	0.1382871
32.40956	3019.873	22.39881	-45.81029	0.1460349
32.4635	3017.318	22.38066	-45.76094	0.1597207
32.51746	3014.774	22.37254	-45.71175	0.1772223
32.57141	3012.242	22.38338	-45.66293	0.1968064
32.62536	3009.725	22.4208	-45.61462	0.2172189
32.67931	3007.227	22.49278	-45.56697	0.2375774
32.73326	3004.755	22.6022	-45.52005	0.2572557
32.78721	3002.315	22.74722	-45.47394	0.2758112
32.84116	2999.91	22.92057	-45.42871	0.2929368
32.89511	2997.54	23.1104	-45.38441	0.3084354
32.94906	2995.199	23.30215	-45.3411	0.3222172
33.00301	2992.884	23.4854	-45.29882	0.3342651
33.05696	2990.585	23.65706	-45.25761	0.3446183
33.11091	2988.295	23.81677	-45.21747	0.3533491
33.16486	2985.999	23.96449	-45.17843	0.360532
33.21881	2983.69	24.10162	-45.14049	0.3662288
33.27276	2981.367	24.22918	-45.10368	0.3705015
33.32671	2979.034	24.35167	-45.06804	0.3734076
33.38066	2976.694	24.47285	-45.03364	0.3750007
33.43462	2974.35	24.59397	-45.00052	0.3753425
33.48857	2972.001	24.71309	-44.9687	0.3744981
33.54251	2969.649	24.82711	-44.93819	0.3725635
33.59647	2967.292	24.93571	-44.90895	0.3696633
33.65042	2964.931	25.03648	-44.88094	0.3659631
33.70437	2962.568	25.12446	-44.8541	0.3617092
33.75832	2960.208	25.19611	-44.82837	0.3571995
33.81227	2957.851	25.25143	-44.8037	0.3527928
33.86622	2955.495	25.29072	-44.78002	0.3488833
33.92017	2953.131	25.31438	-44.75723	0.3458757
33.97412	2950.753	25.32028	-44.73519	0.3441593
34.02807	2948.354	25.30805	-44.7138	0.344048
34.08202	2945.934	25.27585	-44.69294	0.3457425
34.13597	2943.491	25.22577	-44.67253	0.3493066
34.18992	2941.033	25.16206	-44.65249	0.3546701
34.24387	2938.568	25.091	-44.6328	0.3616291
34.29782	2936.107	25.01693	-44.61346	0.3698978
34.35177	2933.661	24.94214	-44.5945	0.3791236
34.40572	2931.238	24.8688	-44.57592	0.3889216
34.45967	2928.839	24.79606	-44.55773	0.3989055
34.51363	2926.465	24.72022	-44.5399	0.4087126
34.56758	2924.108	24.63596	-44.52242	0.4180283
34.62152	2921.756	24.53943	-44.50521	0.4265954
34.67548	2919.395	24.42944	-44.48822	0.4342149
34.72943	2917.009	24.30416	-44.47136	0.4407489
34.78338	2914.59	24.16591	-44.45454	0.4461072
34.83733	2912.134	24.02069	-44.43765	0.4502296
34.89128	2909.645	23.87129	-44.42056	0.453088
34.94523	2907.132	23.72037	-44.40311	0.4546652
34.99918	2904.607	23.57381	-44.38517	0.4549659
35.05313	2902.08	23.4366	-44.36657	0.4539976
35.10708	2899.557	23.31219	-44.34723	0.451773
35.16103	2897.043	23.20041	-44.32703	0.4483093
35.21498	2894.547	23.09768	-44.30595	0.4436291
35.26893	2892.074	22.99848	-44.28394	0.4377663
35.32288	2889.628	22.89848	-44.26102	0.4307501
35.37683	2887.209	22.79401	-44.2372	0.422625
35.43078	2884.814	22.6844	-44.21249	0.4134326
35.48473	2882.433	22.57235	-44.18691	0.4032309
35.53868	2880.053	22.46464	-44.16047	0.3921064
35.59264	2877.66	22.36659	-44.13317	0.3801692
35.64659	2875.246	22.27759	-44.10502	0.3675626
35.70053	2872.809	22.19785	-44.07602	0.3544408
35.75449	2870.354	22.12868	-44.04618	0.340975
35.80844	2867.89	22.07457	-44.01555	0.327353
35.86239	2865.428	22.04133	-43.98418	0.3137542
35.91634	2862.979	22.03519	-43.95211	0.3003563
35.97029	2860.556	22.06013	-43.91938	0.2873029
36.02424	2858.17	22.11769	-43.88605	0.2747238
36.07819	2855.83	22.2054	-43.85218	0.2627533
36.13214	2853.535	22.3127	-43.81786	0.2515284
36.18609	2851.28	22.42828	-43.78321	0.2411927
36.24004	2849.051	22.54498	-43.74838	0.23189
36.29399	2846.832	22.65842	-43.7135	0.2237512
36.34794	2844.607	22.77019	-43.67873	0.2168913
36.40189	2842.364	22.87933	-43.64421	0.2113947
36.45584	2840.096	22.98352	-43.61006	0.2072981
36.50979	2837.807	23.08718	-43.57644	0.2046083
36.56374	2835.498	23.19665	-43.54351	0.2033353
36.61769	2833.175	23.31594	-43.51145	0.2034922
36.67165	2830.845	23.44399	-43.48044	0.2051016
36.7256	2828.514	23.57642	-43.45067	0.2081987
36.77954	2826.185	23.70805	-43.42231	0.2128181
36.8335	2823.863	23.8331	-43.3955	0.2189919
36.88745	2821.554	23.94455	-43.3704	0.2267408
36.9414	2819.26	24.03878	-43.3471	0.2360842
36.99535	2816.982	24.11424	-43.32571	0.2470128
37.0493	2814.717	24.17213	-43.3063	0.2595076
37.10325	2812.458	24.21229	-43.28894	0.2735173
37.1572	2810.199	24.23665	-43.27365	0.2889584
37.21115	2807.93	24.24926	-43.26039	0.3057168
37.2651	2805.644	24.25306	-43.24912	0.3236486
37.31905	2803.334	24.24806	-43.23977	0.342597
37.373	2800.999	24.2316	-43.23221	0.3623879
37.42695	2798.641	24.20007	-43.22637	0.3828496
37.4809	2796.268	24.15083	-43.22215	0.4037892
37.53485	2793.886	24.08654	-43.21943	0.4250244
37.5888	2791.504	24.01424	-43.21808	0.4463831
37.64275	2789.129	23.94246	-43.21797	0.4677078
37.6967	2786.769	23.8763	-43.21891	0.4888337
37.75066	2784.429	23.81292	-43.22072	0.5096118
37.80461	2782.112	23.74463	-43.2232	0.5299003
37.85855	2779.816	23.66342	-43.22613	0.549583
37.91251	2777.531	23.56591	-43.22929	0.5685817
37.96646	2775.247	23.45394	-43.23246	0.5868351
38.02041	2772.951	23.3315	-43.23539	0.6043264
38.07436	2770.64	23.20234	-43.23779	0.621053
38.12831	2768.316	23.06738	-43.23938	0.6370316
38.18226	2765.982	22.92716	-43.23988	0.6522827
38.23621	2763.644	22.78349	-43.239	0.6668324
38.29016	2761.301	22.63904	-43.23647	0.6807042
38.34411	2758.954	22.49222	-43.23205	0.6939368
38.39806	2756.602	22.33803	-43.22551	0.7065697
38.45201	2754.243	22.17667	-43.21666	0.7186524
38.50596	2751.88	22.01732	-43.20538	0.7302297
38.55991	2749.515	21.86834	-43.19159	0.7413358
38.61386	2747.151	21.73374	-43.17527	0.7519996
38.66781	2744.794	21.61337	-43.15645	0.7622342
38.72176	2742.442	21.50512	-43.13519	0.7720399
38.77571	2740.092	21.40452	-43.11158	0.7814335
38.82967	2737.74	21.30634	-43.08576	0.7904221
38.88362	2735.383	21.21103	-43.05793	0.7990353
38.93756	2733.017	21.12153	-43.02829	0.8073039
38.99152	2730.64	21.04287	-42.99706	0.815277
39.04547	2728.254	20.97967	-42.9645	0.8230155
39.09942	2725.859	20.93229	-42.93079	0.8305829
39.15337	2723.456	20.89922	-42.89613	0.8380256
39.20732	2721.049	20.88145	-42.86065	0.8453643
39.26127	2718.645	20.88066	-42.82446	0.8525998
39.31522	2716.253	20.90206	-42.78766	0.8597196
39.36917	2713.876	20.9488	-42.7503	0.8666959
39.42312	2711.516	21.01577	-42.71245	0.8735038
39.47707	2709.17	21.09431	-42.67415	0.88009
39.53102	2706.837	21.17479	-42.63543	0.8863856
39.58497	2704.51	21.24881	-42.59631	0.8922808
39.63892	2702.181	21.31077	-42.55682	0.8976251
39.69287	2699.848	21.36162	-42.51698	0.9022402
39.74682	2697.51	21.40574	-42.47681	0.9059502
39.80077	2695.175	21.4479	-42.43633	0.9085673
39.85472	2692.852	21.49	-42.39558	0.9099078
39.90868	2690.546	21.5313	-42.35461	0.9097954
39.96263	2688.257	21.57139	-42.31348	0.9080689
40.01657	2685.981	21.61155	-42.2722	0.9046023
40.07053	2683.718	21.65608	-42.23075	0.8993126
40.12448	2681.467	21.70662	-42.18911	0.8921396
40.17843	2679.227	21.76127	-42.14721	0.8830535
40.23238	2677.001	21.81624	-42.10498	0.8720412
40.28633	2674.791	21.86602	-42.06237	0.8591005
40.34028	2672.597	21.90315	-42.01929	0.8442517
40.39423	2670.417	21.91743	-41.97569	0.8275549
40.44818	2668.242	21.90145	-41.93147	0.8090981
40.50213	2666.064	21.85388	-41.88655	0.7889909
40.55608	2663.881	21.77745	-41.84086	0.7673416
40.61003	2661.692	21.67749	-41.79435	0.7442511
40.66398	2659.502	21.5625	-41.74703	0.7198046
40.71793	2657.315	21.44181	-41.69896	0.694101
40.77188	2655.128	21.31809	-41.65024	0.6672396
40.82583	2652.942	21.19541	-41.60102	0.639323
40.87978	2650.756	21.07747	-41.55149	0.6104632
40.93373	2648.574	20.96392	-41.50187	0.5807826
40.98769	2646.399	20.85012	-41.45235	0.5504109
41.04163	2644.231	20.73227	-41.40319	0.5195037
41.09558	2642.066	20.60742	-41.35463	0.4882104
41.14954	2639.895	20.4723	-41.30692	0.4566687
41.20349	2637.708	20.32289	-41.26033	0.425006
41.25744	2635.501	20.15558	-41.21511	0.3933578
41.31139	2633.273	19.96768	-41.1715	0.3618625
41.36534	2631.022	19.75959	-41.12974	0.3306883
41.41929	2628.751	19.53559	-41.09	0.3000576
41.47324	2626.467	19.30347	-41.05244	0.2702403
41.52719	2624.177	19.07423	-41.01714	0.2415962
41.58114	2621.885	18.85746	-40.98415	0.2145966
41.63509	2619.594	18.66209	-40.95347	0.1899033
41.68904	2617.308	18.49676	-40.92508	0.1684796
41.74299	2615.027	18.36803	-40.8989	0.1516543
41.79694	2612.757	18.28047	-40.87485	0.1410285
41.85089	2610.498	18.23272	-40.85281	0.1379803
41.90484	2608.253	18.22059	-40.83265	0.1429353
41.95879	2606.021	18.23701	-40.8142	0.1550693
42.01274	2603.802	18.27568	-40.79731	0.17282
42.0667	2601.593	18.33174	-40.7818	0.1945687
42.12064	2599.387	18.40351	-40.7675	0.2189912
42.17459	2597.179	18.48953	-40.75425	0.2450823
42.22855	2594.964	18.58998	-40.74188	0.272071
42.2825	2592.743	18.70355	-40.73025	0.2993655
42.33645	2590.523	18.82696	-40.71921	0.3264834
42.3904	2588.31	18.9604	-40.70858	0.3530345
42.44435	2586.104	19.10876	-40.69818	0.3786885
42.4983	2583.903	19.27666	-40.68778	0.4031761
42.55225	2581.713	19.46213	-40.67719	0.4262555
42.6062	2579.539	19.65919	-40.66621	0.4477213
42.66015	2577.385	19.86247	-40.65471	0.4673918
42.7141	2575.25	20.06796	-40.64257	0.4851061
42.76805	2573.132	20.27212	-40.62972	0.5007187
42.822	2571.025	20.47266	-40.61613	0.5141085
42.87595	2568.92	20.66815	-40.60177	0.525177
42.9299	2566.813	20.85345	-40.58665	0.5338454
42.98385	2564.704	21.0202	-40.57076	0.5400567
43.0378	2562.59	21.16315	-40.55416	0.5437482
43.09175	2560.47	21.28044	-40.53693	0.5448468
43.14571	2558.342	21.37672	-40.51921	0.5432666
43.19965	2556.206	21.45643	-40.50116	0.5389433
43.2536	2554.06	21.52327	-40.48296	0.5318377
43.30756	2551.9	21.58233	-40.46479	0.5219626
43.36151	2549.722	21.63829	-40.44684	0.5093636
43.41546	2547.529	21.6934	-40.42926	0.4941243
43.46941	2545.328	21.74716	-40.41222	0.4763638
43.52336	2543.129	21.79551	-40.39581	0.4562399
43.57731	2540.937	21.83408	-40.38015	0.4339234
43.63126	2538.753	21.86187	-40.36531	0.4095984
43.68521	2536.577	21.87807	-40.35132	0.3834535
43.73916	2534.405	21.88295	-40.33819	0.3556829
43.79311	2532.23	21.87649	-40.32589	0.3264947
43.84706	2530.044	21.85745	-40.31434	0.2961106
43.90101	2527.84	21.82411	-40.30346	0.2647876
43.95496	2525.613	21.77522	-40.29312	0.2328224
44.00891	2523.368	21.70824	-40.28322	0.2005764
44.06286	2521.113	21.623	-40.27362	0.1685117
44.11681	2518.855	21.52565	-40.2642	0.137306
44.17076	2516.6	21.42526	-40.25483	0.1081502
44.22472	2514.354	21.32815	-40.24535	0.08346173
44.27866	2512.125	21.23308	-40.23561	0.06826127
44.33261	2509.922	21.13618	-40.22544	0.06882807
44.38657	2507.746	21.03708	-40.21469	0.08440067
44.44052	2505.593	20.93737	-40.20322	0.1082078
44.49447	2503.455	20.83692	-40.19092	0.1354713
44.54842	2501.324	20.73554	-40.17769	0.1639759
44.60237	2499.197	20.63115	-40.16346	0.1926924
44.65632	2497.071	20.52252	-40.14816	0.2210819
44.71027	2494.945	20.40959	-40.13174	0.2488237
44.76422	2492.82	20.29434	-40.11416	0.2756935
44.81817	2490.693	20.18331	-40.09538	0.3015179
44.87212	2488.561	20.08474	-40.07537	0.3261492
44.92607	2486.424	20.00417	-40.05413	0.3494671
44.98002	2484.282	19.94458	-40.03164	0.3713627
45.03397	2482.136	19.90699	-40.00789	0.3917493
45.08792	2479.987	19.89546	-39.98293	0.4105579
45.14187	2477.838	19.90878	-39.9568	0.4277506
45.19582	2475.69	19.93941	-39.92956	0.4433011
45.24977	2473.54	19.97848	-39.90126	0.4571916
45.30373	2471.382	20.0172	-39.87199	0.4694009
45.35767	2469.21	20.04974	-39.84184	0.4799263
45.41162	2467.016	20.07519	-39.81089	0.4887755
45.46558	2464.797	20.09289	-39.77931	0.4959779
45.51953	2462.558	20.10209	-39.74722	0.5015852
45.57348	2460.304	20.10506	-39.71477	0.5056794
45.62743	2458.043	20.10252	-39.68212	0.5083948
45.68138	2455.785	20.09741	-39.64936	0.5099067
45.73533	2453.54	20.09558	-39.6166	0.5104238
45.78928	2451.318	20.10635	-39.58392	0.5101789
45.84323	2449.125	20.13721	-39.55139	0.5094359
45.89718	2446.963	20.19241	-39.51908	0.50849
45.95113	2444.834	20.2694	-39.4871	0.5076714
46.00508	2442.74	20.36129	-39.45555	0.5073505
46.05903	2440.674	20.45856	-39.42455	0.507905
46.11298	2438.626	20.55249	-39.3942	0.509735
46.16693	2436.585	20.63375	-39.36458	0.5132199
46.22088	2434.541	20.69394	-39.33573	0.5187065
46.27483	2432.484	20.72465	-39.30766	0.5264793
46.32878	2430.413	20.72361	-39.2804	0.5367334
46.38274	2428.332	20.6931	-39.25395	0.5495427
46.43668	2426.245	20.63952	-39.22834	0.5648661
46.49063	2424.155	20.57382	-39.20364	0.5825245
46.54459	2422.064	20.50716	-39.17992	0.6022261
46.59854	2419.974	20.44829	-39.15729	0.6235749
46.65249	2417.885	20.40247	-39.13585	0.646105
46.70644	2415.8	20.36824	-39.11568	0.6693114
46.76039	2413.722	20.3407	-39.09687	0.6926547
46.81434	2411.653	20.31133	-39.07948	0.7155982
46.86829	2409.593	20.27403	-39.06357	0.7376139
46.92224	2407.538	20.224	-39.04918	0.7582028
46.97619	2405.482	20.1588	-39.03632	0.7769113
47.03014	2403.419	20.07798	-39.02498	0.7933239
47.08409	2401.341	19.98272	-39.01512	0.8070875
47.13804	2399.242	19.87454	-39.00668	0.8179117
47.19199	2397.119	19.75687	-38.9996	0.8255771
47.24594	2394.975	19.63486	-38.99377	0.8299291
47.29989	2392.817	19.51431	-38.98912	0.8308805
47.35384	2390.651	19.40128	-38.98554	0.8284014
47.40779	2388.485	19.29874	-38.98296	0.8225092
47.46175	2386.332	19.20865	-38.9813	0.8132554
47.51569	2384.2	19.1359	-38.98049	0.800752
47.56964	2382.1	19.08459	-38.98046	0.7851447
47.6236	2380.033	19.05307	-38.98114	0.7666442
47.67755	2378	19.03327	-38.98241	0.7455019
47.7315	2375.996	19.01536	-38.98416	0.7220002
47.78545	2374.011	18.99417	-38.98623	0.6964425
47.8394	2372.031	18.96759	-38.98845	0.669147
47.89335	2370.043	18.93011	-38.99069	0.6404462
47.9473	2368.032	18.87686	-38.99281	0.6106692
48.00125	2365.993	18.80646	-38.99469	0.580142
48.0552	2363.921	18.72366	-38.99623	0.5491765
48.10915	2361.821	18.63377	-38.99731	0.5180742
48.1631	2359.698	18.541	-38.99784	0.4871159
48.21705	2357.563	18.44967	-38.99765	0.4565487
48.271	2355.427	18.36362	-38.99663	0.4265852
48.32495	2353.297	18.28456	-38.9946	0.3973907
48.3789	2351.18	18.21431	-38.99143	0.3690892
48.43285	2349.077	18.15337	-38.98698	0.3417823
48.4868	2346.984	18.10155	-38.98115	0.3155496
48.54076	2344.892	18.0555	-38.97383	0.290467
48.5947	2342.794	18.01453	-38.96496	0.2665934
48.64865	2340.686	17.97881	-38.95446	0.2439931
48.70261	2338.56	17.95195	-38.94226	0.2227101
48.75656	2336.412	17.93552	-38.92829	0.2027964
48.8105	2334.245	17.92849	-38.91249	0.1843129
48.86446	2332.061	17.92756	-38.89482	0.1673518
48.91841	2329.863	17.93163	-38.87526	0.1520138
48.97236	2327.656	17.93803	-38.85377	0.1384241
49.02631	2325.44	17.94578	-38.83038	0.1266707
49.08026	2323.219	17.95695	-38.80508	0.1167852
49.13421	2320.997	17.97707	-38.77792	0.1086713
49.18816	2318.783	18.0131	-38.74897	0.102089
49.24211	2316.586	18.0704	-38.71832	0.09671123
49.29606	2314.414	18.15211	-38.68607	0.09216249
49.35001	2312.269	18.25361	-38.65233	0.0881101
49.40396	2310.152	18.36694	-38.61723	0.08430402
49.45791	2308.061	18.48492	-38.58084	0.08062912
49.51186	2305.988	18.60257	-38.54329	0.0771575
49.56581	2303.925	18.7143	-38.50467	0.07416046
49.61976	2301.862	18.81405	-38.46507	0.07212606
49.67371	2299.795	18.89301	-38.4246	0.07170486
49.72766	2297.727	18.94748	-38.38337	0.07355101
49.78162	2295.659	18.9814	-38.34147	0.07809026
49.83557	2293.593	19.00395	-38.29901	0.08535908
49.88951	2291.534	19.02384	-38.25609	0.09503876
49.94347	2289.482	19.04708	-38.21283	0.1066247
49.99742	2287.439	19.0774	-38.16937	0.1195582
50.05137	2285.399	19.11793	-38.12585	0.1332958
50.10532	2283.356	19.1702	-38.08242	0.1473539
50.15927	2281.304	19.23279	-38.03923	0.1612891
50.21322	2279.243	19.29888	-37.99638	0.1747124
50.26717	2277.178	19.36013	-37.95401	0.1873057
50.32112	2275.116	19.41369	-37.91219	0.1988137
50.37507	2273.065	19.46185	-37.87097	0.2090693
50.42902	2271.029	19.50596	-37.83041	0.2179633
50.48297	2269.003	19.5447	-37.79055	0.2254544
50.53692	2266.978	19.57429	-37.75143	0.2315533
50.59087	2264.95	19.59212	-37.71311	0.2363126
50.64482	2262.916	19.59507	-37.67561	0.2398123
50.69877	2260.873	19.58315	-37.63896	0.2421653
50.75272	2258.831	19.55837	-37.60318	0.2434997
50.80667	2256.796	19.52395	-37.56829	0.2439642
50.86063	2254.779	19.48351	-37.53429	0.2437219
50.91458	2252.785	19.4399	-37.50121	0.2429368
50.96852	2250.819	19.39166	-37.46907	0.2417549
51.02248	2248.878	19.33167	-37.4379	0.2402834
51.07643	2246.959	19.25116	-37.40772	0.238582
51.13038	2245.054	19.1456	-37.37861	0.2366624
51.18433	2243.156	19.0159	-37.35065	0.234498
51.23828	2241.259	18.86531	-37.32392	0.2320225
51.29223	2239.366	18.69636	-37.2985	0.2291479
51.34618	2237.472	18.51101	-37.27448	0.2257608
51.40013	2235.572	18.31328	-37.25191	0.221752
51.45408	2233.664	18.11224	-37.23085	0.2170345
51.50803	2231.745	17.91785	-37.21132	0.21157
51.56198	2229.813	17.73694	-37.19333	0.2053627
51.61593	2227.867	17.57205	-37.17691	0.1984781
51.66988	2225.907	17.42347	-37.16205	0.1910358
51.72383	2223.93	17.28956	-37.14874	0.1832029
51.77778	2221.934	17.17233	-37.13697	0.1751761
51.83173	2219.92	17.07644	-37.12671	0.1671855
51.88568	2217.891	17.00594	-37.11791	0.1594616
51.93964	2215.852	16.95846	-37.11054	0.1522403
51.99359	2213.806	16.92961	-37.10454	0.1457271
52.04753	2211.756	16.91794	-37.09982	0.1400704
52.10149	2209.7	16.92358	-37.09631	0.135334
52.15544	2207.632	16.94574	-37.09388	0.131476
52.20939	2205.55	16.98269	-37.0924	0.1283518
52.26334	2203.45	17.03412	-37.09174	0.1257486
52.31729	2201.336	17.10098	-37.09172	0.1234095
52.37124	2199.217	17.18425	-37.09217	0.1210773
52.42519	2197.103	17.28192	-37.09289	0.1185272
52.47914	2195.002	17.38913	-37.0937	0.1155749
52.53309	2192.918	17.50386	-37.09439	0.1121067
52.58704	2190.853	17.62639	-37.09478	0.1081067
52.64099	2188.806	17.75813	-37.09463	0.103668
52.69494	2186.775	17.89806	-37.09376	0.09901735
52.74889	2184.762	18.04332	-37.09198	0.09451618
52.80285	2182.769	18.1906	-37.08913	0.09068121
52.85679	2180.797	18.3371	-37.08508	0.08819716
52.91074	2178.85	18.48238	-37.07973	0.08785592
52.96469	2176.926	18.62221	-37.07301	0.09044388
53.01865	2175.015	18.74864	-37.06486	0.09654424
53.0726	2173.107	18.85544	-37.05527	0.1064006
53.12654	2171.189	18.9409	-37.04425	0.1199666
53.1805	2169.251	19.00589	-37.03186	0.1370007
53.23445	2167.295	19.05061	-37.01818	0.157213
53.2884	2165.323	19.07607	-37.00333	0.180317
53.34235	2163.337	19.08364	-36.98743	0.2060591
53.3963	2161.342	19.07496	-36.97066	0.234203
53.45025	2159.339	19.05352	-36.95319	0.2645206
53.5042	2157.331	19.02538	-36.93524	0.2967672
53.55815	2155.321	18.99522	-36.91703	0.3306855
53.6121	2153.307	18.96709	-36.8988	0.366004
53.66605	2151.288	18.94406	-36.88078	0.4024393
53.72	2149.264	18.92506	-36.86322	0.4397094
53.77395	2147.234	18.90857	-36.84637	0.4775063
53.8279	2145.198	18.89417	-36.83045	0.5155244
53.88186	2143.157	18.88134	-36.81567	0.55344
53.9358	2141.115	18.87041	-36.80221	0.5909439
53.98975	2139.071	18.86219	-36.79022	0.6277386
54.0437	2137.024	18.85523	-36.7798	0.6635314
54.09766	2134.969	18.84615	-36.77101	0.698051
54.15161	2132.908	18.82983	-36.76386	0.7310325
54.20555	2130.846	18.80177	-36.75834	0.7622188
54.25951	2128.792	18.75711	-36.7544	0.7913813
54.31346	2126.755	18.69523	-36.752	0.8183129
54.36741	2124.744	18.61814	-36.75105	0.8428296
54.42136	2122.764	18.53008	-36.75146	0.8647807
54.47531	2120.818	18.4335	-36.75313	0.8840387
54.52926	2118.906	18.32833	-36.7559	0.9004949
54.58321	2117.026	18.21374	-36.75957	0.9140722
54.63716	2115.172	18.08608	-36.76392	0.924727
54.69111	2113.337	17.94298	-36.76869	0.9324477
54.74506	2111.51	17.7836	-36.77359	0.9372468
54.79901	2109.681	17.60674	-36.77835	0.9391567
54.85296	2107.84	17.41422	-36.78271	0.9382437
54.90691	2105.98	17.20735	-36.78641	0.9346216
54.96087	2104.094	16.98773	-36.78925	0.9284298
55.01481	2102.184	16.75749	-36.79103	0.9198414
55.06876	2100.25	16.51975	-36.7916	0.9090765
55.12271	2098.298	16.27781	-36.79079	0.8963793
55.17667	2096.337	16.03776	-36.7885	0.882014
55.23062	2094.373	15.80851	-36.78462	0.8662394
55.28456	2092.412	15.60058	-36.77913	0.8493214
55.33852	2090.455	15.42388	-36.77199	0.8315278
55.39247	2088.497	15.28514	-36.76326	0.8131313
55.44642	2086.535	15.18641	-36.75301	0.7943836
55.50037	2084.563	15.12216	-36.74134	0.7755198
55.55432	2082.579	15.08369	-36.72836	0.756741
55.60827	2080.577	15.0647	-36.71421	0.7382263
55.66222	2078.554	15.06112	-36.699	0.7201443
55.71617	2076.508	15.07061	-36.68289	0.7026642
55.77012	2074.443	15.0939	-36.66601	0.6859376
55.82407	2072.362	15.13129	-36.64855	0.6701109
55.87802	2070.274	15.18137	-36.63066	0.6553118
55.93197	2068.188	15.24138	-36.61251	0.6416704
55.98592	2066.111	15.30908	-36.59428	0.6293047
56.03988	2064.044	15.38418	-36.57611	0.6183222
56.09382	2061.984	15.46666	-36.55814	0.6088012
56.14777	2059.932	15.55747	-36.54048	0.6007751
56.20173	2057.89	15.65756	-36.52322	0.5942202
56.25568	2055.857	15.7649	-36.50642	0.5890321
56.30963	2053.833	15.87387	-36.49012	0.585034
56.36357	2051.819	15.9812	-36.47433	0.5819789
56.41753	2049.808	16.08456	-36.45906	0.5795834
56.47148	2047.797	16.17966	-36.44427	0.5775301
56.52543	2045.78	16.26394	-36.4299	0.5755031
56.57938	2043.752	16.3349	-36.41586	0.5732005
56.63333	2041.719	16.39079	-36.40204	0.570335
56.68728	2039.685	16.43312	-36.3883	0.566672
56.74123	2037.657	16.46531	-36.37452	0.5620322
56.79518	2035.641	16.49444	-36.36058	0.5562912
56.84913	2033.639	16.53147	-36.34637	0.5493983
56.90308	2031.655	16.58325	-36.33176	0.541371
56.95703	2029.688	16.65288	-36.31665	0.5322835
57.01098	2027.738	16.73933	-36.30099	0.5222765
57.06493	2025.802	16.83597	-36.28469	0.511546
57.11888	2023.874	16.93282	-36.26772	0.5003498
57.17283	2021.951	17.01796	-36.25005	0.4890216
57.22678	2020.036	17.07936	-36.23162	0.4779402
57.28074	2018.13	17.11011	-36.21241	0.4675431
57.33469	2016.24	17.10993	-36.19239	0.4582814
57.38863	2014.366	17.08351	-36.1715	0.4505991
57.44258	2012.505	17.03865	-36.14973	0.4448819
57.49654	2010.653	16.98406	-36.12704	0.441413
57.55049	2008.802	16.92558	-36.10341	0.440336
57.60444	2006.942	16.86548	-36.07884	0.4416397
57.65839	2005.07	16.8032	-36.05331	0.4451586
57.71234	2003.188	16.74002	-36.02686	0.4506151
57.76629	2001.303	16.67848	-35.99949	0.4576319
57.82024	1999.422	16.6205	-35.97124	0.4657594
57.87419	1997.548	16.56628	-35.94217	0.4745234
57.92814	1995.684	16.51508	-35.91234	0.4834505
57.98209	1993.827	16.46712	-35.88181	0.4920889
58.03604	1991.968	16.42065	-35.85068	0.5000505
58.08999	1990.102	16.37164	-35.81903	0.5070245
58.14394	1988.223	16.31709	-35.78699	0.5127873
58.19789	1986.333	16.25223	-35.75467	0.5172102
58.25184	1984.433	16.17002	-35.72216	0.5202355
58.30579	1982.524	16.06731	-35.68958	0.521853
58.35975	1980.606	15.94807	-35.65699	0.5220961
58.4137	1978.676	15.81844	-35.62445	0.5210359
58.46764	1976.73	15.68371	-35.59197	0.5187677
58.5216	1974.768	15.54754	-35.55951	0.515412
58.57555	1972.791	15.41244	-35.52701	0.511109
58.6295	1970.805	15.27939	-35.49439	0.5060146
58.68345	1968.814	15.14702	-35.46158	0.5002726
58.7374	1966.824	15.01111	-35.42853	0.4940251
58.79135	1964.839	14.87294	-35.39519	0.4873978
58.8453	1962.863	14.73705	-35.36152	0.4804963
58.89925	1960.896	14.6086	-35.32747	0.4734172
58.9532	1958.936	14.49152	-35.293	0.4662429
59.00715	1956.977	14.38982	-35.25806	0.459029
59.0611	1955.016	14.3041	-35.22262	0.4518259
59.11505	1953.047	14.23244	-35.18662	0.4446694
59.169	1951.07	14.17297	-35.15005	0.437592
59.22295	1949.083	14.12467	-35.11285	0.4306011
59.2769	1947.089	14.08735	-35.07497	0.4236965
59.33085	1945.095	14.06021	-35.03633	0.416844
59.3848	1943.107	14.04133	-34.99688	0.409991
59.43876	1941.134	14.03143	-34.95655	0.4030717
59.49271	1939.182	14.03317	-34.91528	0.3960099
59.54665	1937.249	14.05051	-34.87304	0.3887316
59.60061	1935.328	14.08735	-34.82979	0.3811693
59.65456	1933.415	14.14566	-34.78556	0.373271
59.70851	1931.508	14.22305	-34.74035	0.3649964
59.76246	1929.609	14.31772	-34.69419	0.3563402
59.81641	1927.724	14.42977	-34.64713	0.3473071
59.87036	1925.857	14.55696	-34.59921	0.3379239
59.92431	1924.009	14.69614	-34.55049	0.3282228
59.97826	1922.18	14.84306	-34.50101	0.318255
60.03221	1920.364	14.99619	-34.45087	0.3080682
60.08616	1918.555	15.15423	-34.40015	0.2976985
60.14011	1916.746	15.3121	-34.34899	0.2871763
60.19406	1914.934	15.46036	-34.29756	0.276502
60.24801	1913.121	15.58837	-34.24606	0.2656746
60.30196	1911.312	15.689	-34.19471	0.2546794
60.35591	1909.51	15.76205	-34.14369	0.2435112
60.40986	1907.717	15.81226	-34.09319	0.2321979
60.46381	1905.931	15.84768	-34.04335	0.2208158
60.51777	1904.153	15.87485	-33.99428	0.2095368
60.57172	1902.38	15.89889	-33.94606	0.1986512
60.62566	1900.604	15.92259	-33.89875	0.1886428
60.67962	1898.82	15.94532	-33.85238	0.180227
60.73357	1897.023	15.96278	-33.807	0.1743586
60.78752	1895.217	15.9734	-33.76259	0.1721606
60.84147	1893.406	15.98036	-33.71915	0.1747096
60.89542	1891.6	15.98676	-33.67659	0.1827536
60.94937	1889.804	15.99411	-33.63481	0.1965075
61.00332	1888.02	16.00146	-33.59363	0.2156666
61.05727	1886.253	16.00358	-33.55283	0.2395669
61.11122	1884.501	15.99396	-33.51217	0.2674108
61.16517	1882.763	15.96693	-33.47134	0.2983972
61.21912	1881.029	15.91954	-33.43003	0.3317999
61.27307	1879.293	15.85344	-33.38789	0.3669826
61.32702	1877.545	15.77264	-33.34459	0.4033983
61.38097	1875.781	15.68141	-33.29977	0.4405862
61.43492	1874.005	15.58299	-33.25312	0.4781341
61.48887	1872.223	15.48271	-33.20429	0.5156691
61.54282	1870.442	15.38849	-33.15295	0.5528436
61.59678	1868.666	15.30978	-33.09875	0.589314
61.65073	1866.896	15.25125	-33.04139	0.6247601
61.70467	1865.131	15.21113	-32.98053	0.6588696
61.75863	1863.373	15.18544	-32.91588	0.6913545
61.81258	1861.621	15.16772	-32.84718	0.7219326
61.86653	1859.873	15.15074	-32.77416	0.7503604
61.92048	1858.123	15.12632	-32.6966	0.776408
61.97443	1856.364	15.08828	-32.61428	0.7998709
62.02838	1854.595	15.03543	-32.52703	0.8205775
62.08233	1852.813	14.97069	-32.43467	0.8383742
62.13628	1851.015	14.89617	-32.33705	0.8531489
62.19023	1849.197	14.81423	-32.23404	0.8648205
62.24418	1847.357	14.72326	-32.12552	0.8733401
62.29813	1845.496	14.62077	-32.01144	0.878697
62.35208	1843.621	14.50452	-31.8917	0.880927
62.40603	1841.738	14.37519	-31.76627	0.8801159
62.45998	1839.853	14.23619	-31.63509	0.8763624
62.51393	1837.973	14.09282	-31.49815	0.8698093
62.56788	1836.105	13.95309	-31.35542	0.8606158
62.62183	1834.253	13.82459	-31.20687	0.8489503
62.67579	1832.417	13.70677	-31.0525	0.8349816
62.72974	1830.595	13.59469	-30.89229	0.818867
62.78368	1828.784	13.48551	-30.72623	0.8007774
62.83764	1826.981	13.37856	-30.55428	0.7808641
62.89159	1825.185	13.27368	-30.37636	0.7592776
62.94554	1823.395	13.17172	-30.19238	0.7361652
62.99949	1821.609	13.07661	-30.00219	0.7116539
63.05344	1819.832	12.99206	-29.80559	0.6858866
63.10739	1818.066	12.92019	-29.60235	0.6590001
63.16134	1816.318	12.8613	-29.39218	0.631137
63.21529	1814.592	12.81351	-29.17479	0.6024571
63.26924	1812.892	12.77411	-28.94986	0.5731279
63.32319	1811.22	12.74254	-28.71705	0.5433474
63.37714	1809.575	12.71957	-28.47604	0.5133378
63.43109	1807.956	12.70819	-28.22648	0.4833193
63.48504	1806.363	12.70981	-27.96802	0.4535319
63.53899	1804.797	12.72323	-27.70027	0.4241908
63.59294	1803.262	12.74672	-27.42285	0.395485
63.64689	1801.757	12.78024	-27.13536	0.367593
63.70084	1800.288	12.82395	-26.8374	0.340658
63.7548	1798.857	12.87617	-26.52855	0.3148021
63.80875	1797.465	12.93571	-26.2084	0.2901122
63.86269	1796.108	13.00091	-25.87654	0.2666215
63.91665	1794.777	13.06715	-25.53259	0.2443395
63.9706	1793.46	13.12889	-25.17618	0.2232147
64.02454	1792.154	13.18214	-24.80696	0.2031551
64.0785	1790.857	13.22421	-24.42459	0.1840852
64.13245	1789.574	13.25439	-24.02872	0.1659251
64.1864	1788.305	13.27428	-23.61899	0.1486777
64.24035	1787.051	13.28709	-23.19502	0.1324361
64.2943	1785.81	13.29801	-22.75643	0.1174648
64.34825	1784.584	13.3116	-22.3028	0.104299
64.4022	1783.369	13.33022	-21.83367	0.09374987
64.45615	1782.164	13.35376	-21.34859	0.08689275
64.5101	1780.965	13.38345	-20.84704	0.08476562
64.56405	1779.772	13.42238	-20.32853	0.08783939
64.618	1778.582	13.47002	-19.79251	0.09570329
64.67195	1777.397	13.52305	-19.23843	0.1073914
64.72591	1776.218	13.57879	-18.66574	0.1218878
64.77985	1775.05	13.63518	-18.0738	0.1384149
64.8338	1773.895	13.68975	-17.46202	0.1564548
64.88776	1772.758	13.73772	-16.82972	0.175696
64.9417	1771.641	13.77479	-16.17616	0.1959615
64.99566	1770.543	13.79896	-15.50059	0.2171934
65.04961	1769.466	13.80882	-14.80209	0.2393613
65.10355	1768.411	13.80588	-14.07977	0.2625062
65.15751	1767.38	13.79396	-13.33258	0.2866508
65.21146	1766.376	13.77761	-12.55946	0.3118148
65.26541	1765.405	13.75808	-11.75928	0.3380802
65.31936	1764.472	13.73392	-10.93087	0.3654462
65.37331	1763.577	13.70575	-10.07306	0.3939844
65.42726	1762.724	13.67687	-9.184608	0.4237198
65.48121	1761.913	13.65128	-8.264256	0.4546474
65.53516	1761.142	13.6312	-7.310725	0.4868605
65.58911	1760.414	13.61428	-6.322746	0.5203182
65.64306	1759.734	13.59447	-5.299033	0.5551446
65.69701	1759.105	13.56492	-4.23828	0.5913519
65.75096	1758.528	13.52192	-3.139227	0.6289313
65.80492	1758.007	13.46442	-2.000574	0.6680173
65.85886	1757.545	13.39371	-0.8210688	0.7085755
65.91281	1757.143	13.31318	0.400501	0.7507713
65.96677	1756.798	13.22716	1.665323	0.7945969
66.02071	1756.508	13.14238	2.974549	0.8400945
66.07467	1756.269	13.0651	4.329267	0.8873483
66.12862	1756.081	12.9993	5.730534	0.9362633
66.18256	1755.945	12.94662	7.179326	0.9869094
66.23652	1755.865	12.9055	8.676635	1.039128
66.29047	1755.85	12.87344	10.22346	1.092799
66.34442	1755.911	12.84947	11.82069	1.147764
66.39837	1756.057	12.83504	13.46933	1.20373
66.45232	1756.298	12.82951	15.17025	1.260552
66.50627	1756.634	12.83297	16.92439	1.317851
66.56022	1757.066	12.8484	18.7327	1.375334
66.61417	1757.589	12.87874	20.59593	1.432717
66.66812	1758.202	12.92361	22.51496	1.48967
66.72207	1758.904	12.98108	24.49048	1.546074
66.77602	1759.701	13.04412	26.52326	1.601618
66.82997	1760.598	13.10351	28.61404	1.656277
66.88393	1761.604	13.15226	30.76344	1.709876
66.93787	1762.723	13.1894	32.97218	1.762357
66.99182	1763.962	13.21713	35.24084	1.813821
67.04578	1765.321	13.23848	37.57015	1.864207
67.09972	1766.802	13.25926	39.96073	1.913647
67.15368	1768.406	13.28853	42.41321	1.962238
67.20763	1770.131	13.33321	44.92833	2.010216
67.26157	1771.978	13.397	47.5066	2.057803
67.31553	1773.948	13.47855	50.14877	2.105164
67.36948	1776.047	13.57181	52.85547	2.152598
67.42343	1778.281	13.66909	55.62737	2.200327
67.47738	1780.656	13.76895	58.46525	2.248679
67.53133	1783.182	13.87552	61.36968	2.297884
67.58528	1785.873	13.99075	64.34152	2.348207
67.63923	1788.742	14.11386	67.38142	2.399793
67.69318	1791.799	14.24479	70.48999	2.453001
67.74713	1795.048	14.38256	73.66799	2.507917
67.80108	1798.487	14.52486	76.9159	2.56486
67.85503	1802.111	14.67102	80.2344	2.62402
67.90898	1805.918	14.82074	83.62388	2.685442
67.96294	1809.906	14.97583	87.08478	2.749475
68.01688	1814.076	15.13956	90.61748	2.815975
68.07083	1818.429	15.3133	94.22217	2.885137
68.12479	1822.964	15.49734	97.89911	2.956873
68.17873	1827.679	15.6898	101.6484	3.031135
68.23269	1832.575	15.88679	105.47	3.108086
68.28664	1837.657	16.08463	109.364	3.187366
68.34058	1842.933	16.28248	113.3302	3.269134
68.39454	1848.414	16.47636	117.3683	3.352995
68.44849	1854.109	16.65799	121.4782	3.438773
68.50244	1860.031	16.81873	125.6595	3.526309
68.55639	1866.188	16.95301	129.9118	3.615109
68.61034	1872.585	17.06115	134.2345	3.705088
68.66429	1879.224	17.1515	138.6272	3.795693
68.71824	1886.104	17.23114	143.0891	3.886603
68.77219	1893.224	17.30239	147.6195	3.97759
68.82614	1900.582	17.36532	152.2175	4.068178
68.88009	1908.177	17.42019	156.8822	4.158206
68.93404	1916.01	17.4672	161.6126	4.24725
68.98799	1924.088	17.5031	166.4075	4.335185
69.04195	1932.418	17.52723	171.2657	4.421834
69.09589	1941.013	17.54371	176.186	4.506971
69.14984	1949.882	17.55789	181.1667	4.590703
69.2038	1959.032	17.57626	186.2065	4.672896
69.25774	1968.471	17.60751	191.3035	4.753719
69.31169	1978.204	17.65914	196.4557	4.833235
69.36565	1988.237	17.73267	201.6613	4.911591
69.41959	1998.577	17.82483	206.9178	4.988911
69.47355	2009.225	17.93409	212.2228	5.065232
69.5275	2020.184	18.05882	217.5737	5.140594
69.58144	2031.451	18.19964	222.9673	5.215065
69.6354	2043.03	18.36067	228.4007	5.288523
69.68935	2054.925	18.54682	233.87	5.360857
69.7433	2067.142	18.76032	239.3716	5.431866
69.79725	2079.685	19.00227	244.9009	5.501269
69.8512	2092.561	19.27478	250.4533	5.568842
69.90515	2105.772	19.57902	256.0235	5.634135
69.9591	2119.321	19.91201	261.6057	5.696786
70.01305	2133.214	20.26942	267.1939	5.756268
70.067	2147.457	20.64665	272.7811	5.812016
70.12095	2162.054	21.0409	278.36	5.863452
70.1749	2177.007	21.44753	283.9228	5.909982
70.22885	2192.316	21.86226	289.4611	5.951011
70.28281	2207.988	22.28302	294.9659	5.985958
70.33675	2224.019	22.70912	300.4277	6.014248
70.3907	2240.407	23.14087	305.8367	6.035171
70.44466	2257.147	23.57663	311.1824	6.048194
70.4986	2274.24	24.00941	316.4542	6.052649
70.55256	2291.688	24.43278	321.6409	6.047928
70.60651	2309.493	24.84456	326.7313	6.033448
70.66045	2327.655	25.24902	331.7138	6.008581
70.71441	2346.178	25.65398	336.5767	5.973063
70.76836	2365.059	26.06694	341.308	5.926126
70.82231	2384.295	26.48845	345.896	5.867882
70.87626	2403.877	26.91479	350.3287	5.798139
70.93021	2423.799	27.34025	354.5943	5.716814
70.98416	2444.055	27.75854	358.6812	5.624483
71.03811	2464.645	28.16548	362.5777	5.520991
71.09206	2485.571	28.55667	366.273	5.407606
71.14601	2506.838	28.92738	369.7558	5.284594
71.19996	2528.441	29.27823	373.0162	5.153106
71.25391	2550.372	29.61266	376.044	5.014499
71.30786	2572.622	29.93669	378.8301	4.869809
71.36182	2595.186	30.25882	381.3656	4.721017
71.41576	2618.064	30.59075	383.6423	4.569298
71.46971	2641.257	30.94339	385.6533	4.416945
71.52367	2664.762	31.32294	387.3914	4.265562
71.57761	2688.577	31.73352	388.8514	4.11737
71.63157	2712.7	32.17385	390.0281	3.974504
71.68552	2737.125	32.63472	390.9172	3.839
71.73946	2761.837	33.10191	391.516	3.712894
71.79342	2786.818	33.56195	391.8214	3.597704
71.84737	2812.044	34.00654	391.8325	3.495774
71.90132	2837.486	34.42831	391.5479	3.408012
71.95527	2863.111	34.82018	390.9681	3.336166
72.00922	2888.883	35.1747	390.094	3.280968
72.06317	2914.767	35.48672	388.9268	3.242743
72.11712	2940.723	35.75602	387.4692	3.22186
72.17107	2966.706	35.98013	385.7234	3.217269
72.22502	2992.672	36.15445	383.6936	3.228613
72.27897	3018.575	36.2781	381.3835	3.254654
72.33292	3044.363	36.35923	378.798	3.293905
72.38687	3069.986	36.41129	375.9425	3.345361
72.44083	3095.395	36.44521	372.8225	3.40714
72.49477	3120.543	36.4637	369.4446	3.477828
72.54872	3145.382	36.45897	365.8156	3.556486
72.60268	3169.861	36.41857	361.9427	3.641392
72.65662	3193.927	36.33628	357.8343	3.732137
72.71058	3217.532	36.21296	353.4983	3.827313
72.76453	3240.634	36.05356	348.9435	3.926031
72.81847	3263.188	35.86149	344.1793	4.02809
72.87243	3285.155	35.63736	339.2152	4.132029
72.92638	3306.5	35.37997	334.0613	4.237791
72.98033	3327.197	35.09056	328.7277	4.344145
73.03428	3347.231	34.77373	323.225	4.450358
73.08823	3366.589	34.43534	317.5644	4.556019
73.14218	3385.271	34.07924	311.7566	4.659898
73.19613	3403.278	33.71323	305.8132	4.761699
73.25008	3420.618	33.35112	299.7458	4.86025
73.30403	3437.296	33.00512	293.5659	4.954974
73.35798	3453.32	32.68236	287.2856	5.045149
73.41193	3468.689	32.38638	280.9171	5.129829
73.46588	3483.406	32.11876	274.4724	5.208397
73.51984	3497.467	31.8803	267.9638	5.279934
73.57378	3510.877	31.66752	261.4038	5.343701
73.62773	3523.646	31.47315	254.8048	5.399033
73.68169	3535.796	31.28953	248.179	5.445158
73.73563	3547.349	31.10867	241.539	5.481486
73.78959	3558.331	30.92349	234.8971	5.507479
73.84354	3568.767	30.7276	228.2656	5.522699
73.89748	3578.681	30.51774	221.6566	5.526713
73.95144	3588.094	30.29285	215.0823	5.519316
74.00539	3597.038	30.05148	208.5542	5.500337
74.05934	3605.538	29.79926	202.0839	5.469754
74.11329	3613.621	29.5489	195.6826	5.427854
74.16724	3621.309	29.30972	189.3608	5.374629
74.22119	3628.623	29.08324	183.129	5.310755
74.27514	3635.582	28.86556	176.9967	5.236429
74.32909	3642.199	28.65217	170.9734	5.152295
74.38304	3648.491	28.44529	165.0676	5.059175
74.43699	3654.472	28.24882	159.2872	4.957432
74.49094	3660.164	28.06377	153.6397	4.848142
74.54489	3665.586	27.88933	148.1316	4.732036
74.59885	3670.755	27.72053	142.769	4.61003
74.65279	3675.698	27.54989	137.557	4.483244
74.70674	3680.444	27.36821	132.5001	4.352118
74.7607	3685.018	27.17444	127.6021	4.218171
74.81464	3689.438	26.97201	122.8658	4.082216
74.8686	3693.722	26.77136	118.2935	3.945264
74.92255	3697.894	26.58262	113.8866	3.808442
74.97649	3701.979	26.41865	109.6456	3.672158
75.03045	3705.994	26.2905	105.5705	3.537851
75.0844	3709.946	26.20515	101.6606	3.405964
75.13835	3713.842	26.16399	97.91413	3.277442
75.1923	3717.684	26.16836	94.32908	3.153041
75.24625	3721.479	26.21877	90.90249	3.033196
75.3002	3725.225	26.31074	87.63109	2.918899
75.35415	3728.922	26.43315	84.51105	2.810521
75.4081	3732.567	26.57477	81.53782	2.708752
75.46205	3736.155	26.72857	78.70671	2.613896
75.516	3739.679	26.88938	76.01215	2.526154
75.56995	3743.132	27.05341	73.44858	2.445872
75.6239	3746.511	27.21692	71.00991	2.372995
75.67786	3749.809	27.37735	68.68979	2.307426
75.7318	3753.025	27.53141	66.4818	2.248854
75.78575	3756.157	27.67636	64.37908	2.196792
75.83971	3759.205	27.80959	62.37514	2.150747
75.89365	3762.165	27.93158	60.4632	2.110052
75.94761	3765.043	28.04201	58.63665	2.073934
76.00156	3767.844	28.14019	56.88903	2.041615
76.0555	3770.561	28.22777	55.21396	2.012191
76.10946	3773.184	28.30623	53.60547	1.984936
76.16341	3775.705	28.37692	52.05766	1.959119
76.21736	3778.118	28.43989	50.56499	1.934108
76.27131	3780.422	28.48852	49.12225	1.909422
76.32526	3782.614	28.51404	47.72455	1.884682
76.37921	3784.705	28.50872	46.36744	1.859826
76.43316	3786.709	28.47262	45.04684	1.834958
76.48711	3788.644	28.41638	43.75905	1.810476
76.54106	3790.523	28.35645	42.50081	1.787088
76.59501	3792.362	28.30816	41.2692	1.765782
76.64896	3794.177	28.27824	40.06177	1.74791
76.70291	3795.985	28.2701	38.87643	1.735095
76.75687	3797.797	28.28386	37.71146	1.729209
76.81081	3799.614	28.32356	36.56546	1.732253
76.86476	3801.438	28.38888	35.43734	1.74618
76.91872	3803.272	28.47267	34.32628	1.772723
76.97266	3805.116	28.55963	33.23167	1.813204
77.02662	3806.969	28.63317	32.15312	1.86837
77.08057	3808.823	28.67959	31.09046	1.938333
77.13451	3810.672	28.69274	30.04364	2.022571
77.18847	3812.513	28.67502	29.01281	2.120041
77.24242	3814.344	28.64171	27.99821	2.229275
77.29637	3816.159	28.61137	27.00015	2.348551
77.35032	3817.949	28.59955	26.01904	2.475989
77.40427	3819.7	28.61551	25.05527	2.609628
77.45822	3821.392	28.66312	24.10917	2.74753
77.51217	3823.008	28.74154	23.18106	2.887786
77.56612	3824.536	28.84709	22.27114	3.028648
77.62007	3825.971	28.97193	21.37955	3.168462
77.67402	3827.309	29.10403	20.50628	3.30577
77.72797	3828.543	29.22401	19.6513	3.439273
77.78192	3829.67	29.31035	18.81447	3.567837
77.83588	3830.69	29.34423	17.99561	3.690494
77.88982	3831.604	29.31355	17.1945	3.806358
77.94377	3832.418	29.21176	16.41084	3.914731
77.99773	3833.135	29.04094	15.64436	4.015008
78.05167	3833.759	28.80602	14.89476	4.106709
78.10563	3834.287	28.51695	14.16179	4.189488
78.15958	3834.718	28.19063	13.44519	4.263126
78.21352	3835.05	27.84811	12.74473	4.327572
78.26748	3835.279	27.49772	12.06032	4.38285
78.32143	3835.412	27.13498	11.39189	4.429193
78.37538	3835.462	26.74895	10.73952	4.466859
78.42933	3835.441	26.32775	10.10341	4.496189
78.48328	3835.359	25.86079	9.483887	4.51758
78.53723	3835.228	25.34071	8.881525	4.531362
78.59118	3835.067	24.76193	8.296934	4.538001
78.64513	3834.895	24.11912	7.730979	4.537796
78.69908	3834.723	23.40866	7.184545	4.53115
78.75303	3834.554	22.63693	6.658637	4.518354
78.80698	3834.389	21.81682	6.154373	4.49967
78.86093	3834.23	20.96648	5.672879	4.475382
78.91489	3834.081	20.11124	5.215361	4.445691
78.96883	3833.947	19.28061	4.782937	4.41097
79.02278	3833.826	18.50074	4.376784	4.371449
79.07674	3833.717	17.78856	3.998006	4.327508
79.13068	3833.618	17.14957	3.647651	4.279438
79.18464	3833.533	16.58039	3.326684	4.227516
79.23859	3833.468	16.07739	3.035938	4.172011
79.29253	3833.425	15.6391	2.776135	4.113115
79.34649	3833.411	15.26258	2.547777	4.051126
79.40044	3833.429	14.93789	2.351217	3.986194
79.45439	3833.473	14.652	2.186467	3.918611
79.50834	3833.536	14.39562	2.053342	3.848608
79.56229	3833.609	14.16488	1.951342	3.776506
79.61624	3833.678	13.96121	1.879754	3.70268
79.67019	3833.73	13.79	1.837636	3.627553
79.72414	3833.754	13.66019	1.82371	3.551748
79.77809	3833.749	13.58001	1.836647	3.475816
79.83204	3833.708	13.55246	1.874791	3.400479
79.88599	3833.632	13.57535	1.936457	3.326386
79.93994	3833.523	13.64776	2.019796	3.254203
79.9939	3833.383	13.76588	2.122838	3.184601
80.04784	3833.219	13.91669	2.243584	3.11817
80.10179	3833.04	14.08473	2.37988	3.055551
80.15575	3832.844	14.25568	2.529577	2.997284
80.20969	3832.629	14.42005	2.6905	2.943878
80.26365	3832.404	14.56978	2.860468	2.895796
80.3176	3832.183	14.70046	3.03739	2.853388
80.37154	3831.98	14.81738	3.219207	2.816946
80.4255	3831.799	14.92952	3.404021	2.786582
80.47945	3831.64	15.04814	3.590077	2.76224
80.5334	3831.51	15.18666	3.775838	2.743654
80.58735	3831.419	15.35589	3.959978	2.730324
80.6413	3831.376	15.55898	4.141394	2.721579
80.69525	3831.389	15.78977	4.319151	2.716577
80.7492	3831.464	16.03543	4.492558	2.714406
80.80315	3831.602	16.27343	4.661035	2.714066
80.8571	3831.81	16.48557	4.824212	2.714589
80.91105	3832.092	16.66107	4.981816	2.715039
80.965	3832.45	16.79551	5.133707	2.714581
81.01895	3832.886	16.89139	5.279841	2.712515
81.07291	3833.403	16.95794	5.420231	2.708235
81.12685	3833.999	17.00814	5.554972	2.701338
81.1808	3834.663	17.05321	5.684155	2.691469
81.23476	3835.377	17.10152	5.807935	2.67848
81.2887	3836.126	17.16505	5.926439	2.662299
81.34266	3836.901	17.25203	6.03975	2.642956
81.39661	3837.692	17.36355	6.147866	2.620612
81.45055	3838.491	17.49344	6.250643	2.595439
81.50451	3839.289	17.6349	6.347831	2.567782
81.55846	3840.084	17.78166	6.43896	2.537973
81.61241	3840.873	17.92781	6.523463	2.506475
81.66636	3841.653	18.06975	6.600571	2.473808
81.72031	3842.424	18.20415	6.669403	2.440503
81.77426	3843.19	18.32815	6.728941	2.407174
81.82821	3843.955	18.43891	6.77804	2.374403
81.88216	3844.722	18.53395	6.81554	2.342804
81.93611	3845.487	18.61681	6.84016	2.31298
81.99006	3846.242	18.69186	6.850628	2.285442
82.04401	3846.973	18.76582	6.845592	2.260715
82.09796	3847.662	18.84338	6.823689	2.239264
82.15192	3848.289	18.93042	6.783536	2.221503
82.20586	3848.841	19.03294	6.723677	2.20784
82.25981	3849.317	19.15257	6.642725	2.198585
82.31377	3849.716	19.28564	6.53924	2.194027
82.36771	3850.042	19.42086	6.411836	2.194345
82.42167	3850.306	19.54288	6.25925	2.199589
82.47562	3850.526	19.63806	6.080226	2.209777
82.52956	3850.718	19.69782	5.873788	2.224757
82.58352	3850.895	19.71753	5.638977	2.244369
82.63747	3851.066	19.69206	5.375102	2.268369
82.69142	3851.237	19.62857	5.081643	2.296421
82.74537	3851.405	19.53856	4.758225	2.328271
82.79932	3851.569	19.43243	4.404714	2.363542
82.85327	3851.722	19.32161	4.021073	2.40198
82.90722	3851.857	19.21522	3.607528	2.443311
82.96117	3851.967	19.11782	3.164505	2.487251
83.01512	3852.062	19.02608	2.692579	2.533621
83.06907	3852.152	18.93698	2.192571	2.582136
83.12302	3852.258	18.84108	1.665372	2.632599
83.17697	3852.391	18.72927	1.11207	2.684755
83.23093	3852.561	18.59843	0.5338781	2.738316
83.28487	3852.773	18.45083	-0.06788057	2.793049
83.33882	3853.032	18.28751	-0.691802	2.848625
83.39278	3853.337	18.11102	-1.336461	2.904779
83.44672	3853.683	17.92758	-2.000446	2.961238
83.50068	3854.058	17.74787	-2.682344	3.017731
83.55463	3854.447	17.58344	-3.38088	3.07409
83.60857	3854.828	17.44186	-4.094799	3.130129
83.66253	3855.185	17.3191	-4.822958	3.185727
83.71648	3855.499	17.20899	-5.564278	3.240765
83.77043	3855.759	17.11077	-6.317749	3.295129
83.82438	3855.956	17.02657	-7.082509	3.34881
83.87833	3856.087	16.9604	-7.857738	3.401772
83.93228	3856.15	16.91509	-8.642756	3.45402
83.98623	3856.147	16.88579	-9.436969	3.505536
84.04018	3856.073	16.86051	-10.23983	3.556234
84.09413	3855.92	16.82736	-11.05098	3.606062
84.14808	3855.682	16.78293	-11.8701	3.654926
84.20203	3855.357	16.72927	-12.69703	3.702784
84.25598	3854.946	16.67189	-13.53174	3.749615
84.30994	3854.452	16.61727	-14.37424	3.795392
84.36388	3853.873	16.56951	-15.22467	3.840138
84.41783	3853.208	16.53214	-16.08315	3.883831
84.47179	3852.459	16.50829	-16.94987	3.926463
84.52573	3851.627	16.49737	-17.82499	3.968009
84.57969	3850.715	16.49407	-18.70867	4.008401
84.63364	3849.723	16.49202	-19.60109	4.047558
84.68758	3848.65	16.4857	-20.50236	4.085313
84.74154	3847.493	16.46734	-21.41258	4.121447
84.79549	3846.248	16.43138	-22.33179	4.15565
84.84944	3844.912	16.37641	-23.25998	4.187561
84.90339	3843.481	16.30241	-24.19703	4.216767
84.95734	3841.954	16.21626	-25.14274	4.242832
85.01129	3840.331	16.1287	-26.09675	4.265295
85.06524	3838.62	16.04738	-27.05859	4.283687
85.11919	3836.831	15.97668	-28.02766	4.297521
85.17314	3834.971	15.91939	-29.00319	4.306313
85.22709	3833.046	15.87671	-29.98433	4.309609
85.28104	3831.061	15.84576	-30.97006	4.30699
85.33499	3829.021	15.82067	-31.95928	4.298095
85.38895	3826.929	15.79525	-32.95076	4.282644
85.44289	3824.792	15.76632	-33.9432	4.260411
85.49684	3822.612	15.73504	-34.93526	4.23128
85.5508	3820.394	15.7014	-35.92556	4.195208
85.60474	3818.14	15.66083	-36.91269	4.152272
85.65869	3815.852	15.60509	-37.89531	4.102657
85.71265	3813.527	15.53271	-38.87201	4.046608
85.76659	3811.172	15.44906	-39.84147	3.984473
85.82055	3808.797	15.36252	-40.80241	3.91666
85.8745	3806.416	15.2779	-41.75361	3.843639
85.92844	3804.04	15.19955	-42.69396	3.76597
85.9824	3801.68	15.13151	-43.62238	3.684227
86.03635	3799.334	15.07826	-44.53789	3.599055
86.0903	3796.997	15.04887	-45.43961	3.511111
86.14425	3794.652	15.05367	-46.32677	3.421067
86.1982	3792.291	15.09614	-47.19872	3.329654
86.25215	3789.9	15.17358	-48.05489	3.23757
86.3061	3787.47	15.27943	-48.89486	3.145544
86.36005	3784.988	15.4078	-49.71827	3.054262
86.414	3782.45	15.5535	-50.52482	2.964336
86.46795	3779.853	15.71338	-51.31435	2.876333
86.5219	3777.199	15.88798	-52.08669	2.790692
86.57585	3774.489	16.08154	-52.8418	2.707836
86.62981	3771.725	16.29531	-53.57968	2.628124
86.68375	3768.904	16.527	-54.30043	2.551883
86.7377	3766.023	16.76808	-55.0042	2.479403
86.79166	3763.071	17.01268	-55.69119	2.410895
86.8456	3760.042	17.25751	-56.36166	2.346534
86.89956	3756.929	17.50299	-57.01585	2.286376
86.95351	3753.731	17.7443	-57.65404	2.230453
87.00745	3750.452	17.97071	-58.27648	2.178739
87.06141	3747.096	18.1662	-58.88341	2.131161
87.11536	3743.662	18.31733	-59.47508	2.087619
87.16931	3740.153	18.41353	-60.05169	2.047942
87.22326	3736.576	18.45038	-60.61347	2.011963
87.27721	3732.951	18.42937	-61.16059	1.979457
87.33116	3729.286	18.35358	-61.69322	1.950232
87.38511	3725.591	18.22658	-62.21146	1.924093
87.43906	3721.875	18.05551	-62.71539	1.900845
87.49301	3718.145	17.84766	-63.20504	1.880327
87.54696	3714.409	17.60812	-63.68046	1.862334
87.60091	3710.671	17.33763	-64.14171	1.84671
87.65486	3706.925	17.03812	-64.58883	1.833262
87.70882	3703.164	16.71813	-65.02189	1.821806
87.76276	3699.375	16.39235	-65.44097	1.812163
87.81671	3695.556	16.06907	-65.84619	1.804136
87.87067	3691.704	15.75394	-66.23773	1.79759
87.92461	3687.826	15.45106	-66.61577	1.792327
87.97857	3683.931	15.16177	-66.98058	1.788268
88.03252	3680.031	14.89099	-67.33245	1.785318
88.08646	3676.136	14.6483	-67.6717	1.783431
88.14042	3672.246	14.44329	-67.99867	1.782587
88.19437	3668.367	14.27965	-68.31374	1.782755
88.24832	3664.499	14.15748	-68.61732	1.783965
88.30227	3660.631	14.0697	-68.90983	1.786153
88.35622	3656.75	14.00778	-69.19172	1.78925
88.41017	3652.844	13.96983	-69.46342	1.793056
88.46412	3648.907	13.95951	-69.72539	1.797289
88.51807	3644.942	13.97816	-69.97805	1.801558
88.57202	3640.956	14.02519	-70.22183	1.805381
88.62597	3636.958	14.09974	-70.4572	1.808252
88.67992	3632.953	14.19941	-70.6846	1.809596
88.73387	3628.949	14.31712	-70.90454	1.808857
88.78783	3624.952	14.44613	-71.11755	1.805464
88.84177	3620.966	14.58426	-71.3242	1.798897
88.89572	3616.992	14.73416	-71.52508	1.788696
88.94968	3613.042	14.89949	-71.72073	1.774514
89.00362	3609.117	15.08006	-71.91174	1.756152
89.05758	3605.219	15.26731	-72.09862	1.733564
89.11153	3601.343	15.44991	-72.2818	1.706877
89.16547	3597.487	15.61903	-72.4617	1.676355
89.21943	3593.645	15.77131	-72.63865	1.64237
89.27338	3589.819	15.90466	-72.8129	1.605411
89.32733	3586.007	16.01766	-72.98472	1.566061
89.38128	3582.215	16.1092	-73.15427	1.524993
89.43523	3578.443	16.18022	-73.32175	1.482967
89.48918	3574.703	16.23279	-73.48732	1.44078
89.54313	3570.998	16.26703	-73.65115	1.399258
89.59708	3567.331	16.27775	-73.81342	1.359197
89.65103	3563.695	16.26262	-73.97429	1.321341
89.70498	3560.078	16.22319	-74.13393	1.286374
89.75893	3556.459	16.16039	-74.2925	1.25484
89.81288	3552.822	16.07705	-74.45019	1.227146
89.86684	3549.144	15.97823	-74.60715	1.203501
89.92078	3545.417	15.86243	-74.76349	1.183891
89.97473	3541.636	15.72584	-74.91933	1.168092
90.02869	3537.805	15.56428	-75.07479	1.155668
90.08263	3533.915	15.3792	-75.22993	1.14603
90.13659	3529.967	15.1752	-75.3848	1.138459
90.19054	3525.962	14.9595	-75.53942	1.132193
90.24448	3521.911	14.73887	-75.69375	1.126471
90.29844	3517.816	14.51491	-75.84773	1.120563
90.35239	3513.682	14.28459	-76.00129	1.113821
90.40634	3509.506	14.05005	-76.15431	1.105687
90.46029	3505.288	13.81865	-76.30667	1.095713
90.51424	3501.029	13.59722	-76.45819	1.08358
90.56819	3496.736	13.39333	-76.60868	1.069091
90.62214	3492.406	13.21251	-76.7579	1.05214
90.67609	3488.049	13.06077	-76.90556	1.032698
90.73004	3483.668	12.94343	-77.05139	1.0108
90.78399	3479.273	12.86344	-77.19509	0.9865758
90.83794	3474.863	12.8239	-77.33635	0.9601796
90.89189	3470.45	12.82845	-77.47489	0.9318421
90.94585	3466.038	12.8776	-77.61049	0.9018478
90.99979	3461.633	12.96677	-77.7429	0.8705445
91.05374	3457.243	13.09116	-77.87193	0.8383432
91.1077	3452.872	13.24881	-77.99732	0.8056732
91.16164	3448.516	13.43906	-78.1188	0.773018
91.2156	3444.171	13.65827	-78.23606	0.7408375
91.26955	3439.824	13.89874	-78.34879	0.7095562
91.32349	3435.462	14.15419	-78.45668	0.6795726
91.37745	3431.069	14.42435	-78.55934	0.6512352
91.4314	3426.638	14.71313	-78.65643	0.624877
91.48535	3422.175	15.02419	-78.74763	0.6007738
91.5393	3417.693	15.35548	-78.83266	0.579158
91.59325	3413.214	15.69828	-78.91138	0.5601857
91.6472	3408.765	16.04208	-78.98363	0.5439322
91.70115	3404.366	16.37626	-79.04936	0.5304114
91.7551	3400.022	16.6889	-79.1086	0.5196123
91.80905	3395.727	16.97237	-79.16141	0.5115255
91.863	3391.463	17.22056	-79.20798	0.5061542
91.91695	3387.217	17.42688	-79.24851	0.5035419
91.9709	3382.972	17.58809	-79.28328	0.5037742
92.02486	3378.716	17.70501	-79.31265	0.506977
92.0788	3374.436	17.77734	-79.33695	0.5133013
92.13275	3370.123	17.8083	-79.35658	0.5229291
92.18671	3365.775	17.80539	-79.37188	0.5360581
92.24065	3361.394	17.7769	-79.38324	0.5528826
92.29461	3356.99	17.7279	-79.39103	0.5735925
92.34856	3352.577	17.65806	-79.39563	0.5983487
92.4025	3348.17	17.56639	-79.39746	0.6272466
92.45646	3343.791	17.45705	-79.40265	0.6652926
92.51041	3339.453	17.33426	-79.41251	0.7044048
92.56436	3335.167	17.20035	-79.42544	0.7444435
92.61831	3330.93	17.05658	-79.44	0.7856458
92.67226	3326.74	16.905	-79.45522	0.8283024
92.72621	3322.588	16.74732	-79.47042	0.8726062
92.78016	3318.467	16.58897	-79.48528	0.9186627
92.83411	3314.365	16.43553	-79.49958	0.9664799
92.88806	3310.271	16.28942	-79.51328	1.016008
92.94201	3306.167	16.15018	-79.5264	1.067154
92.99596	3302.048	16.01377	-79.53896	1.119795
93.04991	3297.903	15.87821	-79.55104	1.173798
93.10387	3293.736	15.74006	-79.56273	1.229027
93.15781	3289.551	15.59573	-79.57412	1.285339
93.21176	3285.365	15.44426	-79.5853	1.342592
93.26572	3281.194	15.28398	-79.59634	1.400655
93.31966	3277.055	15.11702	-79.60736	1.459393
93.37362	3272.951	14.94619	-79.61841	1.518682
93.42757	3268.88	14.77396	-79.62959	1.57841
93.48151	3264.819	14.60576	-79.64095	1.638459
93.53547	3260.747	14.4464	-79.65257	1.698729
93.58942	3256.641	14.29704	-79.66448	1.75912
93.64337	3252.492	14.15757	-79.67677	1.819541
93.69732	3248.293	14.02831	-79.68946	1.87991
93.75127	3244.044	13.90882	-79.70262	1.940141
93.80522	3239.739	13.79699	-79.7163	2.000166
93.85917	3235.381	13.69191	-79.73052	2.059913
93.91312	3230.984	13.59088	-79.74536	2.119314
93.96707	3226.568	13.49823	-79.76083	2.178319
94.02102	3222.147	13.4181	-79.777	2.236868
94.07497	3217.728	13.44236	-79.79391	2.294914
94.12892	3213.249	13.46586	-79.81158	2.352416
94.18288	3208.707	13.48506	-79.83003	2.409334
94.23682	3204.123	13.50345	-79.84932	2.465631
94.29077	3199.51	13.52392	-79.86944	2.521285
94.34473	3194.879	13.54857	-79.89042	2.576259
94.39867	3190.235	13.57833	-79.91227	2.630535
94.45263	3185.584	13.61376	-79.93499	2.684094
94.50658	3180.929	13.6544	-79.95859	2.736919
94.56052	3176.274	13.70006	-79.98307	2.789003
94.61448	3171.619	13.75044	-80.00843	2.84033
94.66843	3166.967	13.80486	-80.03465	2.890905
94.72238	3162.318	13.86325	-80.06174	2.940712
94.77633	3157.673	13.92512	-80.08968	2.989769
94.83028	3153.031	13.99031	-80.11845	3.038072
94.88423	3148.392	14.05837	-80.14803	3.085625
94.93818	3143.752	14.12891	-80.17843	3.132443
94.99213	3139.11	14.20116	-80.20959	3.178541
