T[Â°C]	350nm [counts / mm]	S.D.	First derivative	S.D. of first derivative
20.00094	3311.947	28.12701	-47.52275	2.842515
20.05489	3309.407	28.24176	-47.48925	2.789385
20.10884	3306.866	28.3501	-47.45599	2.736125
20.16279	3304.324	28.45167	-47.42299	2.682727
20.21674	3301.779	28.54603	-47.39024	2.629181
20.27069	3299.231	28.63305	-47.35775	2.575486
20.32465	3296.679	28.71258	-47.32553	2.521637
20.3786	3294.123	28.78501	-47.2936	2.467637
20.43255	3291.561	28.84993	-47.26195	2.41349
20.4865	3288.995	28.90783	-47.23058	2.359201
20.54045	3286.423	28.959	-47.19949	2.304784
20.5944	3283.847	29.0044	-47.1687	2.250248
20.64835	3281.268	29.04574	-47.1382	2.195612
20.7023	3278.687	29.08496	-47.10799	2.140897
20.75625	3276.108	29.12449	-47.07806	2.086128
20.8102	3273.536	29.16794	-47.04842	2.031329
20.86415	3270.976	29.21879	-47.01905	1.976538
20.9181	3268.438	29.27675	-46.98996	1.921788
20.97205	3265.924	29.32576	-46.96112	1.867125
21.026	3263.362	29.25879	-46.93254	1.812598
21.07995	3260.802	29.17769	-46.90418	1.758257
21.1339	3258.238	29.08021	-46.87605	1.704163
21.18785	3255.676	28.96025	-46.84811	1.650386
21.2418	3253.116	28.8133	-46.82037	1.596994
21.29575	3250.559	28.63695	-46.79278	1.544066
21.3497	3248.006	28.42757	-46.76535	1.491686
21.40366	3245.462	28.18763	-46.73804	1.43995
21.45761	3242.93	27.92459	-46.71084	1.388953
21.51156	3240.415	27.64657	-46.68374	1.338802
21.56551	3237.923	27.36001	-46.6567	1.289613
21.61946	3235.459	27.07106	-46.62972	1.241505
21.67341	3233.025	26.78668	-46.60277	1.194608
21.72736	3230.617	26.5134	-46.57583	1.149064
21.78131	3228.226	26.25273	-46.54887	1.105021
21.83526	3225.84	26.00412	-46.52187	1.062633
21.88921	3223.449	25.76346	-46.49479	1.022074
21.94316	3221.047	25.526	-46.46762	0.9835154
21.99711	3218.635	25.29307	-46.4403	0.9471463
22.05106	3216.216	25.06847	-46.41282	0.9131579
22.10501	3213.79	24.8573	-46.38515	0.8817396
22.15896	3211.356	24.66552	-46.35725	0.853075
22.21291	3208.913	24.49914	-46.32913	0.8273076
22.26686	3206.459	24.35918	-46.30078	0.8045154
22.32081	3203.99	24.24296	-46.27226	0.7846584
22.37476	3201.503	24.14987	-46.24366	0.7674894
22.42871	3198.999	24.08302	-46.21519	0.7524721
22.48266	3196.48	24.04222	-46.18716	0.7386923
22.53662	3193.95	24.02549	-46.16004	0.7248539
22.59057	3191.413	24.03314	-46.13442	0.7095912
22.64452	3188.873	24.0673	-46.1171	0.6886606
22.69847	3186.331	24.13082	-46.10097	0.6683544
22.75242	3183.79	24.22624	-46.08613	0.6485063
22.80637	3181.249	24.35071	-46.07264	0.6289521
22.86032	3178.71	24.49729	-46.06054	0.6095282
22.91427	3176.182	24.66087	-46.04986	0.5900798
22.96822	3173.668	24.83873	-46.04063	0.5704643
23.02217	3171.167	25.02969	-46.03284	0.5505505
23.07612	3168.675	25.23492	-46.02649	0.5302221
23.13007	3166.19	25.45238	-46.02154	0.509394
23.18402	3163.712	25.67808	-46.01797	0.4880347
23.23797	3161.238	25.90538	-46.01575	0.4661481
23.29192	3158.766	26.12643	-46.01484	0.4437913
23.34587	3156.298	26.33403	-46.01515	0.4210493
23.39982	3153.837	26.51951	-46.01662	0.3980321
23.45377	3151.379	26.67584	-46.01913	0.3748719
23.50772	3148.917	26.79821	-46.02254	0.3517146
23.56167	3146.444	26.88509	-46.0267	0.3287245
23.61563	3143.958	26.94011	-46.03143	0.3060992
23.66958	3141.463	26.97188	-46.03656	0.2840713
23.72353	3138.963	26.98966	-46.04194	0.262935
23.77748	3136.458	27.00056	-46.04738	0.2431191
23.83143	3133.949	27.00956	-46.05273	0.2252628
23.88538	3131.441	27.01533	-46.0578	0.2102806
23.93933	3128.933	27.01665	-46.06242	0.19938
23.99328	3126.428	27.01018	-46.06643	0.1939315
24.04723	3123.93	26.98908	-46.06967	0.1951323
24.10118	3121.445	26.9482	-46.07196	0.2035596
24.15513	3118.971	26.8886	-46.07315	0.2189542
24.20908	3116.511	26.81539	-46.07312	0.2403915
24.26303	3114.062	26.73185	-46.07172	0.2666574
24.31698	3111.621	26.63963	-46.06886	0.2965417
24.37093	3109.18	26.54239	-46.06451	0.3289689
24.42488	3106.736	26.44682	-46.05867	0.3630395
24.47883	3104.284	26.35839	-46.0514	0.3980287
24.53278	3101.825	26.28257	-46.04284	0.4333619
24.58673	3099.362	26.22383	-46.0331	0.4685825
24.64068	3096.896	26.18067	-46.02235	0.5033224
24.69464	3094.431	26.15204	-46.01077	0.5372766
24.74859	3091.973	26.13817	-45.99853	0.5701886
24.80254	3089.521	26.13307	-45.98582	0.6018065
24.85649	3087.077	26.12744	-45.97281	0.6318891
24.91044	3084.635	26.11244	-45.95966	0.6602007
24.96439	3082.188	26.07937	-45.94653	0.6865131
25.01834	3079.728	26.01521	-45.93353	0.7106062
25.07229	3077.249	25.91029	-45.92078	0.7322609
25.12624	3074.754	25.76363	-45.90837	0.7512764
25.18019	3072.241	25.58366	-45.89638	0.7674906
25.23414	3069.711	25.38141	-45.88487	0.7807738
25.28809	3067.167	25.1713	-45.87389	0.791059
25.34204	3064.615	24.96735	-45.86347	0.7983397
25.39599	3062.064	24.78001	-45.85362	0.8026794
25.44994	3059.52	24.61428	-45.84431	0.8042232
25.50389	3056.982	24.47078	-45.83553	0.803207
25.55784	3054.455	24.34608	-45.82721	0.7999274
25.61179	3051.942	24.23845	-45.81924	0.7947199
25.66574	3049.444	24.14381	-45.81156	0.7879513
25.71969	3046.955	24.05751	-45.80405	0.7799841
25.77365	3044.468	23.97654	-45.79661	0.7711614
25.8276	3041.974	23.89504	-45.78908	0.7618154
25.88155	3039.467	23.80931	-45.78131	0.7522432
25.9355	3036.946	23.71934	-45.77316	0.7426961
25.98945	3034.416	23.62592	-45.76443	0.7333746
26.0434	3031.885	23.52967	-45.75497	0.7244149
26.09735	3029.366	23.43844	-45.74459	0.7158968
26.1513	3026.867	23.36521	-45.73318	0.707855
26.20525	3024.395	23.32435	-45.7206	0.7003086
26.2592	3021.955	23.32798	-45.70677	0.693238
26.31315	3019.544	23.38047	-45.69162	0.6865939
26.3671	3017.16	23.47798	-45.67511	0.6802862
26.42105	3014.796	23.61013	-45.65725	0.6741994
26.475	3012.443	23.7622	-45.63808	0.6682231
26.52895	3010.092	23.92105	-45.61768	0.6622575
26.5829	3007.731	24.07211	-45.59615	0.656244
26.63685	3005.354	24.20256	-45.57362	0.6501554
26.6908	3002.954	24.30517	-45.55023	0.6440111
26.74475	3000.533	24.37488	-45.52613	0.6378549
26.7987	2998.096	24.40596	-45.50147	0.6317371
26.85266	2995.646	24.39931	-45.47643	0.6257109
26.9066	2993.19	24.36773	-45.45115	0.619845
26.96056	2990.729	24.32534	-45.42578	0.6142133
27.01451	2988.267	24.28588	-45.40047	0.6089022
27.06846	2985.805	24.25854	-45.37535	0.6039911
27.12241	2983.344	24.24887	-45.35057	0.5995475
27.17636	2980.886	24.25779	-45.32624	0.5956151
27.23031	2978.429	24.28161	-45.3025	0.5922017
27.28426	2975.966	24.31451	-45.27945	0.5892834
27.33821	2973.493	24.35142	-45.25717	0.5868
27.39216	2971.006	24.39001	-45.23571	0.58465
27.44611	2968.503	24.42596	-45.21508	0.5827163
27.50006	2965.988	24.45055	-45.19527	0.580854
27.55401	2963.467	24.45663	-45.17624	0.5789167
27.60796	2960.948	24.4395	-45.15796	0.5767624
27.66191	2958.435	24.40034	-45.14042	0.5742998
27.71586	2955.934	24.34547	-45.12359	0.5714694
27.76981	2953.446	24.28251	-45.10743	0.5682567
27.82376	2950.973	24.2211	-45.09187	0.5646989
27.87771	2948.519	24.16685	-45.07683	0.5608657
27.93167	2946.085	24.12037	-45.0622	0.5568717
27.98561	2943.672	24.0774	-45.04785	0.5528367
28.03957	2941.279	24.02949	-45.03362	0.5489013
28.09352	2938.901	23.96904	-45.01935	0.5452023
28.14747	2936.533	23.8895	-45.00489	0.541886
28.20142	2934.17	23.7886	-44.99007	0.5390953
28.25537	2931.806	23.66598	-44.97474	0.5369488
28.30932	2929.44	23.52458	-44.95876	0.5355315
28.36327	2927.074	23.36706	-44.94199	0.5348831
28.41722	2924.713	23.19472	-44.92436	0.5349818
28.47117	2922.354	23.0107	-44.90581	0.5357764
28.52512	2919.996	22.82159	-44.88635	0.5371565
28.57907	2917.633	22.63906	-44.86601	0.5390015
28.63302	2915.264	22.47516	-44.84487	0.5411835
28.68697	2912.886	22.33754	-44.82302	0.5435985
28.74092	2910.498	22.22522	-44.80058	0.5461436
28.79487	2908.094	22.12889	-44.77768	0.5487224
28.84882	2905.678	22.04364	-44.75445	0.5512447
28.90277	2903.252	21.96732	-44.73106	0.5536304
28.95672	2900.818	21.90129	-44.70767	0.5558221
29.01068	2898.372	21.84609	-44.68447	0.557798
29.06462	2895.911	21.80266	-44.66163	0.5595514
29.11858	2893.44	21.77092	-44.63932	0.5611109
29.17253	2890.964	21.74934	-44.6177	0.5625027
29.22648	2888.489	21.73524	-44.5969	0.5637744
29.28043	2886.017	21.72851	-44.57705	0.5649568
29.33438	2883.551	21.73434	-44.5582	0.5660639
29.38833	2881.088	21.76233	-44.54041	0.5670879
29.44228	2878.63	21.81925	-44.52367	0.568011
29.49623	2876.182	21.90703	-44.50795	0.5687906
29.55018	2873.749	22.02019	-44.49323	0.5693405
29.60413	2871.33	22.14923	-44.47947	0.5695616
29.65808	2868.928	22.28271	-44.46665	0.5693263
29.71203	2866.539	22.40759	-44.45474	0.5685095
29.76598	2864.158	22.51719	-44.44374	0.5669982
29.81993	2861.78	22.60852	-44.43364	0.5647033
29.87388	2859.4	22.67961	-44.42441	0.5615828
29.92783	2857.02	22.73045	-44.41605	0.5576274
29.98178	2854.643	22.7644	-44.40854	0.5528795
30.03573	2852.274	22.78947	-44.40187	0.5474212
30.08969	2849.917	22.81256	-44.39601	0.5413828
30.14363	2847.57	22.83754	-44.39091	0.5349264
30.19759	2845.23	22.86468	-44.3865	0.5282388
30.25154	2842.89	22.89434	-44.38266	0.5215256
30.30549	2840.547	22.92611	-44.37928	0.5149891
30.35944	2838.202	22.95404	-44.37623	0.5088345
30.41339	2835.857	22.96998	-44.37342	0.5032321
30.46734	2833.511	22.96505	-44.37075	0.4983309
30.52129	2831.163	22.93398	-44.36814	0.4942338
30.57524	2828.811	22.87903	-44.36556	0.4910029
30.62919	2826.452	22.80548	-44.36294	0.4886619
30.68314	2824.083	22.71651	-44.36023	0.4871864
30.73709	2821.699	22.61377	-44.3574	0.4864969
30.79104	2819.3	22.49985	-44.35441	0.4864691
30.84499	2816.887	22.37974	-44.35127	0.4869468
30.89894	2814.466	22.26093	-44.348	0.4877529
30.95289	2812.038	22.14942	-44.34465	0.4887045
31.00684	2809.606	22.05083	-44.34129	0.4896485
31.06079	2807.177	21.96978	-44.33795	0.4904444
31.11474	2804.757	21.90855	-44.33467	0.4909987
31.1687	2802.351	21.86204	-44.33146	0.4912399
31.22264	2799.961	21.81875	-44.32829	0.4911017
31.2766	2797.589	21.7671	-44.32509	0.4905309
31.33055	2795.231	21.69947	-44.32181	0.4894858
31.3845	2792.881	21.61227	-44.31835	0.4879512
31.43845	2790.53	21.50455	-44.31461	0.4859238
31.4924	2788.17	21.37739	-44.31049	0.4834174
31.54635	2785.795	21.23477	-44.30587	0.4804348
31.6003	2783.404	21.08728	-44.30059	0.4769765
31.65425	2781.001	20.94777	-44.29454	0.4730193
31.7082	2778.593	20.82603	-44.28759	0.4685341
31.76215	2776.185	20.728	-44.27962	0.463464
31.8161	2773.78	20.6564	-44.27055	0.4577635
31.87005	2771.38	20.60912	-44.26031	0.4513925
31.924	2768.986	20.57865	-44.2489	0.4443369
31.97795	2766.599	20.55931	-44.23633	0.4366004
32.0319	2764.218	20.54711	-44.22265	0.4282062
32.08585	2761.84	20.53734	-44.20793	0.419195
32.1398	2759.466	20.5273	-44.19225	0.4096146
32.19376	2757.09	20.52082	-44.17567	0.3995298
32.2477	2754.706	20.52259	-44.15832	0.3890207
32.30165	2752.305	20.53199	-44.14028	0.3781762
32.35561	2749.878	20.54679	-44.12168	0.367106
32.40956	2747.422	20.56687	-44.10265	0.3559438
32.4635	2744.944	20.5928	-44.08328	0.3448297
32.51746	2742.456	20.62862	-44.06371	0.3339219
32.57141	2739.967	20.67293	-44.04402	0.3233704
32.62536	2737.488	20.72423	-44.02427	0.3132904
32.67931	2735.027	20.78626	-44.00452	0.3037601
32.73326	2732.591	20.86229	-43.98478	0.2948302
32.78721	2730.183	20.95411	-43.9651	0.2865413
32.84116	2727.803	21.0594	-43.94549	0.2789472
32.89511	2725.445	21.16976	-43.92603	0.272127
32.94906	2723.1	21.27571	-43.90673	0.266182
33.00301	2720.76	21.36912	-43.88764	0.26126
33.05696	2718.417	21.4463	-43.86875	0.2575424
33.11091	2716.065	21.50509	-43.85003	0.2552491
33.16486	2713.697	21.54351	-43.83143	0.2546009
33.21881	2711.312	21.56547	-43.81287	0.2557793
33.27276	2708.917	21.57749	-43.79427	0.2588913
33.32671	2706.522	21.58782	-43.77551	0.2639503
33.38066	2704.134	21.60229	-43.75652	0.2708594
33.43462	2701.761	21.62564	-43.73717	0.279433
33.48857	2699.406	21.65618	-43.71734	0.2893981
33.54251	2697.07	21.68932	-43.6969	0.3004426
33.59647	2694.754	21.71896	-43.67573	0.3122236
33.65042	2692.457	21.73554	-43.65369	0.3244004
33.70437	2690.179	21.7312	-43.63066	0.336656
33.75832	2687.914	21.70427	-43.60655	0.3486981
33.81227	2685.656	21.65812	-43.58127	0.3602743
33.86622	2683.399	21.59578	-43.55474	0.3711762
33.92017	2681.138	21.52145	-43.5269	0.3812259
33.97412	2678.865	21.43913	-43.4977	0.3902604
34.02807	2676.576	21.35503	-43.46713	0.3981328
34.08202	2674.267	21.27274	-43.43517	0.4046805
34.13597	2671.942	21.19544	-43.40189	0.4097498
34.18992	2669.611	21.12625	-43.36736	0.4131924
34.24387	2667.282	21.06318	-43.33175	0.4148858
34.29782	2664.962	21.00211	-43.29522	0.4147496
34.35177	2662.653	20.94303	-43.25799	0.412742
34.40572	2660.355	20.88774	-43.22028	0.4088897
34.45967	2658.064	20.83584	-43.18229	0.4032704
34.51363	2655.774	20.78055	-43.14424	0.3960077
34.56758	2653.476	20.71479	-43.10631	0.3872675
34.62152	2651.166	20.63588	-43.06867	0.3772504
34.67548	2648.839	20.5433	-43.03147	0.3661798
34.72943	2646.491	20.4369	-42.99483	0.3543051
34.78338	2644.121	20.31996	-42.95886	0.3418858
34.83733	2641.728	20.19785	-42.92363	0.3291593
34.89128	2639.314	20.07631	-42.88918	0.3163398
34.94523	2636.885	19.9635	-42.85557	0.3036065
34.99918	2634.449	19.86622	-42.82283	0.2911009
35.05313	2632.016	19.7865	-42.79099	0.2789114
35.10708	2629.59	19.72185	-42.76007	0.2670914
35.16103	2627.177	19.66866	-42.73007	0.255674
35.21498	2624.78	19.6256	-42.70098	0.244704
35.26893	2622.405	19.58963	-42.67276	0.23425
35.32288	2620.053	19.55388	-42.64534	0.2244052
35.37683	2617.723	19.51356	-42.61864	0.2152946
35.43078	2615.408	19.46976	-42.59256	0.2070773
35.48473	2613.103	19.42714	-42.56702	0.1999396
35.53868	2610.801	19.392	-42.5419	0.1941073
35.59264	2608.499	19.36866	-42.51712	0.1897947
35.64659	2606.195	19.35947	-42.49261	0.1871713
35.70053	2603.89	19.36628	-42.4683	0.1863202
35.75449	2601.589	19.39077	-42.44417	0.1872153
35.80844	2599.297	19.43459	-42.42018	0.1897308
35.86239	2597.023	19.49722	-42.39633	0.1936411
35.91634	2594.769	19.578	-42.37262	0.1986705
35.97029	2592.539	19.6775	-42.34907	0.2045412
36.02424	2590.33	19.79546	-42.32569	0.2109904
36.07819	2588.14	19.92768	-42.30254	0.2177832
36.13214	2585.961	20.07031	-42.27971	0.2247299
36.18609	2583.787	20.21746	-42.25729	0.2316751
36.24004	2581.611	20.36143	-42.23545	0.2385077
36.29399	2579.422	20.49633	-42.21432	0.2451603
36.34794	2577.214	20.62071	-42.19408	0.2515979
36.40189	2574.985	20.73269	-42.17491	0.2578279
36.45584	2572.736	20.82855	-42.15698	0.2638919
36.50979	2570.472	20.90575	-42.14047	0.2698484
36.56374	2568.197	20.96345	-42.12556	0.2757637
36.61769	2565.923	21.00556	-42.1124	0.2817034
36.67165	2563.655	21.03855	-42.10117	0.2877407
36.7256	2561.398	21.06651	-42.09197	0.2939424
36.77954	2559.151	21.09093	-42.08493	0.3003963
36.8335	2556.913	21.11092	-42.08009	0.3072149
36.88745	2554.68	21.1233	-42.0775	0.314525
36.9414	2552.449	21.12265	-42.07717	0.3224698
36.99535	2550.22	21.10356	-42.07909	0.3311926
37.0493	2547.99	21.06655	-42.08324	0.3408267
37.10325	2545.754	21.01342	-42.08958	0.351494
37.1572	2543.514	20.94852	-42.09802	0.363284
37.21115	2541.267	20.87642	-42.10845	0.376253
37.2651	2539.013	20.8003	-42.12072	0.3904119
37.31905	2536.754	20.72254	-42.13462	0.4057182
37.373	2534.492	20.64625	-42.14991	0.4220773
37.42695	2532.226	20.57612	-42.16632	0.4393374
37.4809	2529.959	20.51615	-42.18358	0.4573036
37.53485	2527.692	20.46847	-42.20141	0.4757366
37.5888	2525.426	20.43497	-42.21951	0.4943903
37.64275	2523.16	20.41708	-42.23758	0.5130045
37.6967	2520.895	20.41172	-42.25531	0.531342
37.75066	2518.633	20.4095	-42.27238	0.5491885
37.80461	2516.379	20.39737	-42.28847	0.5663541
37.85855	2514.133	20.3655	-42.30329	0.5826753
37.91251	2511.891	20.30917	-42.31658	0.5980297
37.96646	2509.647	20.23008	-42.3281	0.6123475
38.02041	2507.396	20.1312	-42.33763	0.6255845
38.07436	2505.133	20.01437	-42.34499	0.6377382
38.12831	2502.855	19.88108	-42.35002	0.6488073
38.18226	2500.566	19.73714	-42.3526	0.6588019
38.23621	2498.27	19.59048	-42.35263	0.6677397
38.29016	2495.968	19.44978	-42.35007	0.6756158
38.34411	2493.657	19.32173	-42.34489	0.6824375
38.39806	2491.334	19.2149	-42.3371	0.6882128
38.45201	2488.997	19.13258	-42.32676	0.6929609
38.50596	2486.643	19.06974	-42.31394	0.6966954
38.55991	2484.275	19.01816	-42.29873	0.6994311
38.61386	2481.9	18.9746	-42.28127	0.7011695
38.66781	2479.524	18.93614	-42.2617	0.701907
38.72176	2477.15	18.90034	-42.24022	0.7016515
38.77571	2474.781	18.86618	-42.21705	0.7004394
38.82967	2472.415	18.83482	-42.19244	0.6983293
38.88362	2470.049	18.81075	-42.16665	0.6954197
38.93756	2467.681	18.79205	-42.13998	0.6918444
38.99152	2465.312	18.77094	-42.11272	0.6877674
39.04547	2462.939	18.74636	-42.08512	0.6833873
39.09942	2460.565	18.72449	-42.05744	0.6789182
39.15337	2458.194	18.71124	-42.02989	0.6745928
39.20732	2455.828	18.71187	-42.00268	0.6706282
39.26127	2453.471	18.72769	-41.97596	0.6672206
39.31522	2451.127	18.75632	-41.94984	0.6645301
39.36917	2448.802	18.79466	-41.92445	0.6626748
39.42312	2446.495	18.83505	-41.89983	0.661723
39.47707	2444.211	18.87073	-41.87605	0.6616881
39.53102	2441.946	18.89405	-41.85314	0.6625341
39.58497	2439.697	18.89856	-41.83113	0.6641803
39.63892	2437.458	18.88393	-41.81002	0.6665251
39.69287	2435.224	18.852	-41.78981	0.6694386
39.74682	2432.991	18.80541	-41.77046	0.6728027
39.80077	2430.76	18.74853	-41.75195	0.6764861
39.85472	2428.534	18.68585	-41.73421	0.6803663
39.90868	2426.32	18.62103	-41.71719	0.6843124
39.96263	2424.124	18.56322	-41.70078	0.6882002
40.01657	2421.945	18.52212	-41.68487	0.6919155
40.07053	2419.782	18.50521	-41.6693	0.6953595
40.12448	2417.627	18.51101	-41.65395	0.6984397
40.17843	2415.477	18.53422	-41.63867	0.7010749
40.23238	2413.331	18.56631	-41.62337	0.7031853
40.28633	2411.19	18.59695	-41.60798	0.7046814
40.34028	2409.056	18.6182	-41.59245	0.7054655
40.39423	2406.926	18.6276	-41.57676	0.7054433
40.44818	2404.798	18.6257	-41.56087	0.704519
40.50213	2402.666	18.61242	-41.54479	0.7026042
40.55608	2400.531	18.58879	-41.52847	0.6995888
40.61003	2398.391	18.55562	-41.51191	0.6953593
40.66398	2396.247	18.51411	-41.49511	0.6897848
40.71793	2394.103	18.46496	-41.47811	0.6827592
40.77188	2391.959	18.40795	-41.46099	0.6741949
40.82583	2389.817	18.35011	-41.44383	0.6640276
40.87978	2387.676	18.3023	-41.42675	0.6522261
40.93373	2385.535	18.26539	-41.40985	0.6388025
40.98769	2383.389	18.23298	-41.39325	0.6237993
41.04163	2381.235	18.19883	-41.37705	0.6072767
41.09558	2379.07	18.15738	-41.36137	0.5893272
41.14954	2376.887	18.10518	-41.3463	0.570062
41.20349	2374.681	18.03847	-41.33192	0.549614
41.25744	2372.446	17.9529	-41.31829	0.5281245
41.31139	2370.177	17.84462	-41.30545	0.5057446
41.36534	2367.872	17.71156	-41.29341	0.4826256
41.41929	2365.531	17.55708	-41.28215	0.4589233
41.47324	2363.16	17.38989	-41.27163	0.4347654
41.52719	2360.77	17.21768	-41.26176	0.4102456
41.58114	2358.374	17.04806	-41.25246	0.3854447
41.63509	2355.986	16.889	-41.24363	0.3604248
41.68904	2353.611	16.74857	-41.23514	0.3352295
41.74299	2351.254	16.63326	-41.22685	0.3098895
41.79694	2348.912	16.54749	-41.21863	0.2844161
41.85089	2346.584	16.48659	-41.2103	0.2588079
41.90484	2344.269	16.44283	-41.20168	0.2330489
41.95879	2341.966	16.41054	-41.19255	0.2071174
42.01274	2339.67	16.38935	-41.1827	0.181004
42.0667	2337.379	16.37796	-41.1719	0.1547104
42.12064	2335.086	16.37605	-41.15994	0.1282672
42.17459	2332.788	16.38391	-41.14664	0.1017713
42.22855	2330.485	16.3999	-41.13184	0.07543965
42.2825	2328.182	16.41826	-41.11543	0.04991863
42.33645	2325.882	16.43434	-41.09732	0.02805345
42.3904	2323.591	16.44777	-41.07745	0.02429917
42.44435	2321.317	16.46493	-41.0558	0.04358567
42.4983	2319.068	16.49656	-41.03236	0.06849133
42.55225	2316.853	16.55005	-41.00714	0.09443179
42.6062	2314.677	16.62929	-40.9802	0.1204546
42.66015	2312.54	16.73417	-40.95162	0.1462064
42.7141	2310.43	16.86127	-40.92154	0.1714901
42.76805	2308.336	17.0048	-40.89009	0.1961655
42.822	2306.247	17.15914	-40.85748	0.220119
42.87595	2304.149	17.31766	-40.82386	0.2432412
42.9299	2302.03	17.4734	-40.78944	0.2654255
42.98385	2299.884	17.6185	-40.75439	0.2865596
43.0378	2297.711	17.74512	-40.71893	0.3065115
43.09175	2295.517	17.84691	-40.68329	0.3251382
43.14571	2293.31	17.9227	-40.64771	0.3422761
43.19965	2291.103	17.97588	-40.61246	0.357751
43.2536	2288.903	18.011	-40.5778	0.371397
43.30756	2286.717	18.03237	-40.54399	0.3830453
43.36151	2284.545	18.04567	-40.51126	0.3925484
43.41546	2282.386	18.05625	-40.47983	0.3997509
43.46941	2280.239	18.06749	-40.44987	0.404533
43.52336	2278.103	18.08047	-40.42154	0.4068031
43.57731	2275.971	18.09651	-40.39495	0.4065013
43.63126	2273.841	18.11742	-40.37019	0.4036047
43.68521	2271.71	18.14624	-40.3473	0.3981272
43.73916	2269.575	18.18507	-40.32629	0.3901378
43.79311	2267.433	18.23022	-40.30709	0.3797711
43.84706	2265.282	18.27489	-40.28967	0.3672156
43.90101	2263.124	18.31171	-40.27392	0.352708
43.95496	2260.958	18.33347	-40.25976	0.3365256
44.00891	2258.791	18.33567	-40.2471	0.3189794
44.06286	2256.63	18.3185	-40.23588	0.3004039
44.11681	2254.483	18.28873	-40.22601	0.2811363
44.17076	2252.357	18.25496	-40.21738	0.2615219
44.22472	2250.253	18.22218	-40.20988	0.2419035
44.27866	2248.172	18.1931	-40.20337	0.2226194
44.33261	2246.108	18.16781	-40.19767	0.2040174
44.38657	2244.049	18.14717	-40.19261	0.1864718
44.44052	2241.985	18.13397	-40.18803	0.1704146
44.49447	2239.907	18.1283	-40.18375	0.1563494
44.54842	2237.81	18.12549	-40.17958	0.1448692
44.60237	2235.69	18.11768	-40.17536	0.1366344
44.65632	2233.548	18.09844	-40.17093	0.1322927
44.71027	2231.385	18.06462	-40.16612	0.1322817
44.76422	2229.206	18.01701	-40.16077	0.136665
44.81817	2227.013	17.95557	-40.15471	0.1451024
44.87212	2224.807	17.88006	-40.1478	0.1569776
44.92607	2222.593	17.79516	-40.1399	0.1716146
44.98002	2220.369	17.70717	-40.13089	0.1884008
45.03397	2218.14	17.62151	-40.12067	0.2068388
45.08792	2215.904	17.5432	-40.10917	0.2265415
45.14187	2213.663	17.47548	-40.09636	0.2472109
45.19582	2211.417	17.42174	-40.08218	0.2686161
45.24977	2209.165	17.384	-40.06663	0.2905725
45.30373	2206.905	17.3604	-40.04969	0.3129385
45.35767	2204.641	17.34718	-40.03137	0.3355889
45.41162	2202.374	17.33902	-40.01171	0.3584241
45.46558	2200.108	17.32923	-39.99076	0.381354
45.51953	2197.846	17.31195	-39.96861	0.4043037
45.57348	2195.592	17.28417	-39.94532	0.4272035
45.62743	2193.349	17.2461	-39.92102	0.449986
45.68138	2191.117	17.20147	-39.89578	0.4725813
45.73533	2188.898	17.15569	-39.86969	0.4949125
45.78928	2186.692	17.11899	-39.84283	0.516894
45.84323	2184.503	17.09986	-39.81528	0.5384339
45.89718	2182.334	17.10442	-39.78716	0.5594319
45.95113	2180.185	17.13479	-39.75859	0.5797979
46.00508	2178.051	17.18988	-39.72978	0.5994531
46.05903	2175.933	17.26444	-39.7009	0.6183449
46.11298	2173.827	17.3516	-39.67218	0.6364317
46.16693	2171.729	17.44187	-39.64382	0.653694
46.22088	2169.634	17.52534	-39.61604	0.6701285
46.27483	2167.534	17.59386	-39.58902	0.6857556
46.32878	2165.428	17.64404	-39.56297	0.7006026
46.38274	2163.316	17.67618	-39.53807	0.7147016
46.43668	2161.198	17.6947	-39.5145	0.7280991
46.49063	2159.071	17.70642	-39.49247	0.7408377
46.54459	2156.932	17.71642	-39.47213	0.7529635
46.59854	2154.782	17.72408	-39.45366	0.7645183
46.65249	2152.626	17.72694	-39.43718	0.7755386
46.70644	2150.472	17.72398	-39.42282	0.7860497
46.76039	2148.327	17.71235	-39.41067	0.7960612
46.81434	2146.198	17.6876	-39.40079	0.8055707
46.86829	2144.087	17.64411	-39.39321	0.8145652
46.92224	2141.995	17.57857	-39.38794	0.8230112
46.97619	2139.919	17.4887	-39.38498	0.8308748
47.03014	2137.857	17.37671	-39.38429	0.8380958
47.08409	2135.806	17.24332	-39.38582	0.8445862
47.13804	2133.762	17.08984	-39.38949	0.8502375
47.19199	2131.717	16.92106	-39.39518	0.8549179
47.24594	2129.671	16.74411	-39.40275	0.8584885
47.29989	2127.623	16.56632	-39.41206	0.8608017
47.35384	2125.574	16.39479	-39.42296	0.861702
47.40779	2123.524	16.23524	-39.4353	0.8610307
47.46175	2121.48	16.09286	-39.44894	0.8586316
47.51569	2119.448	15.97229	-39.46376	0.8543633
47.56964	2117.43	15.87331	-39.47964	0.8480914
47.6236	2115.432	15.79354	-39.49644	0.8397065
47.67755	2113.451	15.72778	-39.51401	0.8291143
47.7315	2111.483	15.66897	-39.5322	0.8162606
47.78545	2109.52	15.61316	-39.55082	0.8011244
47.8394	2107.552	15.55895	-39.56972	0.7837306
47.89335	2105.57	15.50609	-39.58873	0.764144
47.9473	2103.56	15.45708	-39.60771	0.7424837
48.00125	2101.515	15.41352	-39.62653	0.7189121
48.0552	2099.428	15.3757	-39.64507	0.6936567
48.10915	2097.3	15.34333	-39.6632	0.6669948
48.1631	2095.132	15.31663	-39.6808	0.6392406
48.21705	2092.932	15.29464	-39.69775	0.6107371
48.271	2090.708	15.27502	-39.71392	0.5818287
48.32495	2088.47	15.25597	-39.72919	0.5528382
48.3789	2086.229	15.23538	-39.74345	0.5240673
48.43285	2083.988	15.21029	-39.7566	0.4957663
48.4868	2081.743	15.17904	-39.76857	0.4681496
48.54076	2079.491	15.14047	-39.77927	0.4413745
48.5947	2077.232	15.09326	-39.78865	0.4155543
48.64865	2074.963	15.03852	-39.79664	0.3907633
48.70261	2072.683	14.98273	-39.80318	0.3670437
48.75656	2070.392	14.93126	-39.8082	0.3444305
48.8105	2068.094	14.88618	-39.81162	0.3229426
48.86446	2065.791	14.84794	-39.81337	0.3026057
48.91841	2063.49	14.81679	-39.81335	0.2834474
48.97236	2061.192	14.79559	-39.81147	0.2655035
49.02631	2058.901	14.787	-39.80761	0.2488118
49.08026	2056.622	14.79439	-39.80167	0.2333983
49.13421	2054.358	14.81907	-39.79354	0.2192851
49.18816	2052.112	14.8636	-39.78313	0.2064812
49.24211	2049.885	14.92786	-39.77039	0.194989
49.29606	2047.676	15.00861	-39.75525	0.1847897
49.35001	2045.485	15.10144	-39.73771	0.1758601
49.40396	2043.309	15.20254	-39.71774	0.1681678
49.45791	2041.15	15.30893	-39.69538	0.1616736
49.51186	2039.007	15.41444	-39.67065	0.1563406
49.56581	2036.874	15.51403	-39.64363	0.1521175
49.61976	2034.746	15.60517	-39.61439	0.1489424
49.67371	2032.619	15.68388	-39.58302	0.1467327
49.72766	2030.495	15.74917	-39.54962	0.1453994
49.78162	2028.374	15.80382	-39.51433	0.1448391
49.83557	2026.253	15.85124	-39.47731	0.1449478
49.88951	2024.133	15.89335	-39.43878	0.1456294
49.94347	2022.012	15.93211	-39.39895	0.1467985
49.99742	2019.889	15.9684	-39.35808	0.1483934
50.05137	2017.76	16.0009	-39.31642	0.1503718
50.10532	2015.627	16.0276	-39.27425	0.1527104
50.15927	2013.491	16.04492	-39.23184	0.1554202
50.21322	2011.36	16.04803	-39.18943	0.1585186
50.26717	2009.242	16.03411	-39.14729	0.1620389
50.32112	2007.144	16.00411	-39.10564	0.1660071
50.37507	2005.072	15.95858	-39.06473	0.1704397
50.42902	2003.024	15.89904	-39.02478	0.1753391
50.48297	2000.993	15.82993	-38.98602	0.1806927
50.53692	1998.971	15.75439	-38.94867	0.1864672
50.59087	1996.952	15.67277	-38.91294	0.192604
50.64482	1994.932	15.58567	-38.87905	0.1990179
50.69877	1992.903	15.49588	-38.84718	0.2056051
50.75272	1990.868	15.40589	-38.8175	0.2122371
50.80667	1988.831	15.31958	-38.79018	0.2187709
50.86063	1986.8	15.2421	-38.76534	0.2250676
50.91458	1984.779	15.17659	-38.74311	0.2309777
50.96852	1982.77	15.12123	-38.72359	0.236357
51.02248	1980.772	15.07285	-38.70683	0.2410685
51.07643	1978.785	15.02624	-38.69289	0.2449736
51.13038	1976.805	14.97912	-38.68181	0.2479369
51.18433	1974.831	14.93165	-38.67364	0.2498365
51.23828	1972.857	14.88314	-38.66839	0.2505734
51.29223	1970.88	14.83261	-38.66607	0.2500735
51.34618	1968.896	14.7797	-38.66664	0.248266
51.40013	1966.898	14.7262	-38.67006	0.2450881
51.45408	1964.884	14.67303	-38.67624	0.2404876
51.50803	1962.851	14.61957	-38.68507	0.2344292
51.56198	1960.793	14.5652	-38.69641	0.2268968
51.61593	1958.711	14.5106	-38.71011	0.217888
51.66988	1956.608	14.45838	-38.726	0.2074105
51.72383	1954.49	14.4115	-38.74392	0.1954872
51.77778	1952.363	14.37411	-38.76368	0.182158
51.83173	1950.235	14.35038	-38.78511	0.1674756
51.88568	1948.108	14.34518	-38.80807	0.1515343
51.93964	1945.988	14.35937	-38.83238	0.1344641
51.99359	1943.872	14.3903	-38.8579	0.116448
52.04753	1941.757	14.43376	-38.88446	0.09770702
52.10149	1939.639	14.48637	-38.91187	0.07849377
52.15544	1937.51	14.54496	-38.93993	0.05910518
52.20939	1935.37	14.60515	-38.96844	0.03985538
52.26334	1933.219	14.66329	-38.99718	0.0210863
52.31729	1931.057	14.71556	-39.02594	0.003291408
52.37124	1928.888	14.75765	-39.05447	0.01385551
52.42519	1926.715	14.787	-39.08252	0.02925016
52.47914	1924.541	14.80182	-39.10985	0.04292571
52.53309	1922.372	14.80371	-39.13621	0.05459181
52.58704	1920.215	14.79771	-39.16136	0.06400508
52.64099	1918.069	14.79028	-39.18509	0.07098278
52.69494	1915.936	14.78674	-39.2072	0.07538979
52.74889	1913.815	14.7919	-39.22752	0.07717288
52.80285	1911.703	14.81086	-39.24591	0.07634912
52.85679	1909.6	14.84681	-39.26228	0.0730404
52.91074	1907.503	14.90092	-39.27657	0.06749381
52.96469	1905.408	14.97162	-39.28874	0.06022306
53.01865	1903.311	15.05037	-39.29878	0.05223826
53.0726	1901.205	15.12513	-39.30669	0.04557528
53.12654	1899.089	15.18728	-39.3125	0.04372392
53.1805	1896.958	15.23154	-39.31628	0.0498216
53.23445	1894.814	15.25683	-39.3181	0.06353264
53.2884	1892.661	15.26633	-39.31807	0.08252453
53.34235	1890.498	15.26584	-39.3163	0.1049639
53.3963	1888.33	15.26089	-39.31293	0.1297621
53.45025	1886.158	15.25565	-39.30813	0.156244
53.5042	1883.983	15.25409	-39.30206	0.1839119
53.55815	1881.806	15.25999	-39.29487	0.2123715
53.6121	1879.631	15.27676	-39.28673	0.2412704
53.66605	1877.458	15.30735	-39.2778	0.2702965
53.72	1875.288	15.34991	-39.26821	0.2991697
53.77395	1873.12	15.39985	-39.25809	0.3276182
53.8279	1870.952	15.45207	-39.24757	0.3553671
53.88186	1868.788	15.50361	-39.23674	0.3821469
53.9358	1866.629	15.55378	-39.2257	0.40769
53.98975	1864.474	15.60258	-39.21452	0.4317473
54.0437	1862.325	15.64709	-39.20328	0.4540881
54.09766	1860.178	15.68104	-39.19201	0.4745126
54.15161	1858.035	15.69719	-39.18075	0.4928597
54.20555	1855.897	15.68853	-39.16954	0.5090176
54.25951	1853.771	15.65005	-39.15841	0.5229162
54.31346	1851.662	15.58474	-39.14738	0.5345389
54.36741	1849.573	15.50098	-39.13648	0.5439179
54.42136	1847.501	15.40841	-39.12571	0.5511311
54.47531	1845.444	15.31339	-39.11509	0.5562875
54.52926	1843.4	15.21977	-39.1046	0.5595256
54.58321	1841.368	15.12763	-39.09421	0.5609931
54.63716	1839.342	15.03466	-39.08391	0.5608491
54.69111	1837.321	14.93704	-39.07365	0.5592481
54.74506	1835.3	14.83114	-39.06339	0.5563467
54.79901	1833.276	14.71468	-39.0531	0.552283
54.85296	1831.247	14.58821	-39.04273	0.5471945
54.90691	1829.209	14.45495	-39.03225	0.541202
54.96087	1827.161	14.31604	-39.02163	0.5344135
55.01481	1825.102	14.16892	-39.01083	0.5269186
55.06876	1823.033	14.01136	-38.99986	0.5187759
55.12271	1820.953	13.84317	-38.9887	0.5100383
55.17667	1818.867	13.66734	-38.97735	0.5007412
55.23062	1816.777	13.48982	-38.96582	0.490923
55.28456	1814.689	13.31911	-38.95413	0.4806224
55.33852	1812.602	13.16437	-38.94233	0.4698705
55.39247	1810.515	13.03162	-38.93044	0.4587045
55.44642	1808.422	12.923	-38.91854	0.4471633
55.50037	1806.319	12.83794	-38.90668	0.4352876
55.55432	1804.202	12.77477	-38.89492	0.4231195
55.60827	1802.074	12.73499	-38.88332	0.4107098
55.66222	1799.942	12.72111	-38.87191	0.3981386
55.71617	1797.809	12.73377	-38.86073	0.3855253
55.77012	1795.676	12.76671	-38.84982	0.3730112
55.82407	1793.546	12.81058	-38.8392	0.3607631
55.87802	1791.42	12.85791	-38.82887	0.3489571
55.93197	1789.298	12.90587	-38.81885	0.337775
55.98592	1787.179	12.95506	-38.8091	0.3274015
56.03988	1785.058	13.0079	-38.79962	0.3180175
56.09382	1782.934	13.06872	-38.79037	0.3097962
56.14777	1780.803	13.14288	-38.78136	0.3028844
56.20173	1778.67	13.23207	-38.77254	0.2973877
56.25568	1776.539	13.33286	-38.76393	0.2933357
56.30963	1774.415	13.4392	-38.7555	0.2906853
56.36357	1772.297	13.54757	-38.74728	0.2893038
56.41753	1770.183	13.65593	-38.73927	0.2890175
56.47148	1768.073	13.76257	-38.7315	0.2895841
56.52543	1765.969	13.86365	-38.72399	0.2907526
56.57938	1763.869	13.95542	-38.71677	0.2922554
56.63333	1761.773	14.03399	-38.70984	0.2938378
56.68728	1759.68	14.09631	-38.70322	0.2952784
56.74123	1757.591	14.14164	-38.69692	0.2963991
56.79518	1755.504	14.17117	-38.69094	0.2970646
56.84913	1753.42	14.18957	-38.68529	0.2971758
56.90308	1751.334	14.20325	-38.67994	0.2966882
56.95703	1749.244	14.21693	-38.67488	0.2955961
57.01098	1747.145	14.23088	-38.67009	0.2939605
57.06493	1745.037	14.24453	-38.66555	0.2918867
57.11888	1742.919	14.2586	-38.66128	0.2895506
57.17283	1740.796	14.27162	-38.65725	0.2871732
57.22678	1738.675	14.28126	-38.65344	0.2850067
57.28074	1736.562	14.28656	-38.64983	0.2833259
57.33469	1734.466	14.28613	-38.64637	0.2823916
57.38863	1732.388	14.27702	-38.64301	0.2824515
57.44258	1730.329	14.25545	-38.6397	0.283687
57.49654	1728.286	14.21954	-38.6364	0.2861974
57.55049	1726.251	14.17045	-38.63307	0.2899667
57.60444	1724.214	14.11304	-38.62967	0.294885
57.65839	1722.172	14.05301	-38.62617	0.300769
57.71234	1720.121	13.99559	-38.62255	0.3073806
57.76629	1718.063	13.94304	-38.61876	0.3144512
57.82024	1716.002	13.89678	-38.61479	0.3217034
57.87419	1713.947	13.86125	-38.61058	0.3288583
57.92814	1711.904	13.84109	-38.60608	0.3356545
57.98209	1709.875	13.8352	-38.60121	0.3418653
58.03604	1707.859	13.83837	-38.5959	0.3473088
58.08999	1705.85	13.84397	-38.59007	0.3518564
58.14394	1703.846	13.8468	-38.58366	0.3554321
58.19789	1701.845	13.83953	-38.57661	0.3580047
58.25184	1699.845	13.81358	-38.56888	0.3595718
58.30579	1697.843	13.76453	-38.56039	0.3601609
58.35975	1695.834	13.69232	-38.55107	0.3598193
58.4137	1693.812	13.60156	-38.54087	0.3586212
58.46764	1691.772	13.49938	-38.52969	0.3566627
58.5216	1689.712	13.39226	-38.51746	0.3540614
58.57555	1687.631	13.28602	-38.5041	0.3509469
58.6295	1685.53	13.18554	-38.48956	0.3474384
58.68345	1683.409	13.09407	-38.47381	0.3436622
58.7374	1681.272	13.01408	-38.45686	0.3397192
58.79135	1679.125	12.94772	-38.43873	0.335685
58.8453	1676.971	12.89591	-38.41945	0.3316228
58.89925	1674.814	12.85647	-38.39904	0.3275825
58.9532	1672.66	12.8239	-38.37756	0.3236073
59.00715	1670.508	12.79206	-38.35506	0.3197159
59.0611	1668.359	12.75662	-38.33157	0.3159082
59.11505	1666.216	12.71351	-38.30716	0.3121558
59.169	1664.078	12.66027	-38.28185	0.3084293
59.22295	1661.942	12.59881	-38.25564	0.3046909
59.2769	1659.809	12.53509	-38.22852	0.3009091
59.33085	1657.678	12.47706	-38.20047	0.2970703
59.3848	1655.552	12.43219	-38.17145	0.2931881
59.43876	1653.43	12.4051	-38.14141	0.289306
59.49271	1651.315	12.39704	-38.11029	0.2855068
59.54665	1649.204	12.40836	-38.07808	0.2819268
59.60061	1647.1	12.44008	-38.04479	0.2787574
59.65456	1645.002	12.49429	-38.01044	0.276244
59.70851	1642.913	12.56846	-37.97506	0.2746701
59.76246	1640.835	12.65385	-37.93874	0.2743208
59.81641	1638.768	12.74241	-37.90153	0.2754509
59.87036	1636.715	12.83006	-37.86349	0.2782511
59.92431	1634.676	12.91454	-37.82469	0.2828223
59.97826	1632.649	12.99337	-37.78516	0.2891635
60.03221	1630.625	13.06567	-37.74493	0.2971897
60.08616	1628.599	13.13199	-37.70406	0.3067487
60.14011	1626.566	13.19262	-37.66257	0.3176546
60.19406	1624.525	13.2452	-37.62052	0.3297067
60.24801	1622.479	13.28817	-37.57797	0.3427179
60.30196	1620.428	13.31891	-37.53496	0.3565153
60.35591	1618.376	13.33461	-37.49151	0.370962
60.40986	1616.325	13.33702	-37.44762	0.3859684
60.46381	1614.281	13.33041	-37.40327	0.4014793
60.51777	1612.248	13.31821	-37.35841	0.4174659
60.57172	1610.232	13.30288	-37.31298	0.433917
60.62566	1608.234	13.28486	-37.26692	0.4508303
60.67962	1606.254	13.26227	-37.22018	0.4681879
60.73357	1604.29	13.23381	-37.1727	0.4859561
60.78752	1602.341	13.20111	-37.12442	0.5040687
60.84147	1600.404	13.16665	-37.07528	0.5224429
60.89542	1598.478	13.1315	-37.02518	0.5409771
60.94937	1596.561	13.09707	-36.97399	0.5595368
61.00332	1594.649	13.06639	-36.92158	0.5779621
61.05727	1592.742	13.04135	-36.86777	0.5960696
61.11122	1590.833	13.01918	-36.81238	0.6136492
61.16517	1588.918	12.99333	-36.7552	0.6304918
61.21912	1586.993	12.95868	-36.69598	0.6463842
61.27307	1585.057	12.91285	-36.63446	0.6611325
61.32702	1583.112	12.85864	-36.57038	0.6745549
61.38097	1581.165	12.80167	-36.50343	0.6864957
61.43492	1579.224	12.74512	-36.43335	0.6968232
61.48887	1577.291	12.68861	-36.35984	0.7054224
61.54282	1575.363	12.63126	-36.28265	0.7121995
61.59678	1573.438	12.57351	-36.2015	0.7170883
61.65073	1571.51	12.51596	-36.11617	0.7200487
61.70467	1569.575	12.45797	-36.02644	0.7210698
61.75863	1567.632	12.39704	-35.93211	0.7201716
61.81258	1565.677	12.33058	-35.833	0.7174191
61.86653	1563.713	12.25722	-35.72894	0.7129022
61.92048	1561.741	12.17638	-35.61977	0.7067462
61.97443	1559.763	12.0867	-35.50535	0.6990996
62.02838	1557.778	11.98825	-35.38554	0.6901419
62.08233	1555.786	11.88318	-35.26022	0.6800789
62.13628	1553.785	11.77305	-35.12927	0.6691508
62.19023	1551.775	11.65887	-34.99261	0.6576438
62.24418	1549.757	11.54011	-34.85018	0.6458569
62.29813	1547.735	11.41502	-34.70192	0.6341
62.35208	1545.713	11.28254	-34.54778	0.6227028
62.40603	1543.695	11.14373	-34.38773	0.6120006
62.45998	1541.688	11.00189	-34.22169	0.6022825
62.51393	1539.696	10.86349	-34.04964	0.5937917
62.56788	1537.722	10.73819	-33.87152	0.5866653
62.62183	1535.767	10.63354	-33.68727	0.5809186
62.67579	1533.827	10.55388	-33.49686	0.5764512
62.72974	1531.895	10.5003	-33.3002	0.5730413
62.78368	1529.968	10.47309	-33.09726	0.5704011
62.83764	1528.04	10.46868	-32.88796	0.568176
62.89159	1526.113	10.48239	-32.6722	0.5659848
62.94554	1524.189	10.50818	-32.44989	0.5634621
62.99949	1522.274	10.54107	-32.22088	0.5602477
63.05344	1520.373	10.57697	-31.985	0.55607
63.10739	1518.489	10.6096	-31.74205	0.5507031
63.16134	1516.629	10.63333	-31.4918	0.5439743
63.21529	1514.794	10.64582	-31.234	0.5358081
63.26924	1512.986	10.64696	-30.96836	0.526155
63.32319	1511.206	10.6397	-30.69461	0.515054
63.37714	1509.454	10.62887	-30.41245	0.502584
63.43109	1507.732	10.62181	-30.12158	0.4888624
63.48504	1506.045	10.62835	-29.82173	0.4740778
63.53899	1504.395	10.6579	-29.51259	0.458421
63.59294	1502.784	10.71526	-29.19387	0.4421203
63.64689	1501.21	10.802	-28.86529	0.4254259
63.70084	1499.673	10.91476	-28.52653	0.4085847
63.7548	1498.167	11.04453	-28.17733	0.3918729
63.80875	1496.691	11.1801	-27.81741	0.3755538
63.86269	1495.24	11.31153	-27.4465	0.3598995
63.91665	1493.809	11.42973	-27.06435	0.3451972
63.9706	1492.393	11.52867	-26.6707	0.3317282
64.02454	1490.993	11.6052	-26.2653	0.3197819
64.0785	1489.607	11.65963	-25.84785	0.309629
64.13245	1488.236	11.69429	-25.41809	0.3015024
64.1864	1486.883	11.71357	-24.97573	0.2955881
64.24035	1485.548	11.7236	-24.52044	0.2919908
64.2943	1484.228	11.73047	-24.05193	0.2907351
64.34825	1482.922	11.73863	-23.56985	0.2917726
64.4022	1481.629	11.75087	-23.07381	0.2949798
64.45615	1480.348	11.76808	-22.56344	0.3001729
64.5101	1479.083	11.7907	-22.03829	0.3071227
64.56405	1477.835	11.81772	-21.49792	0.3155702
64.618	1476.605	11.84728	-20.94185	0.3252288
64.67195	1475.394	11.87515	-20.36954	0.3358149
64.72591	1474.199	11.89705	-19.7805	0.3470571
64.77985	1473.018	11.90739	-19.17417	0.3587125
64.8338	1471.847	11.9042	-18.55	0.3705973
64.88776	1470.687	11.88656	-17.90743	0.3825581
64.9417	1469.54	11.85073	-17.24585	0.3945122
64.99566	1468.41	11.79451	-16.56465	0.4064254
65.04961	1467.299	11.71818	-15.86311	0.4182802
65.10355	1466.209	11.62458	-15.14052	0.4301436
65.15751	1465.142	11.52183	-14.39607	0.442049
65.21146	1464.104	11.42018	-13.62893	0.4540908
65.26541	1463.1	11.32875	-12.83823	0.4663851
65.31936	1462.135	11.25159	-12.02307	0.4790202
65.37331	1461.208	11.18618	-11.18258	0.4922054
65.42726	1460.32	11.12596	-10.31581	0.5061045
65.48121	1459.472	11.066	-9.421849	0.5209371
65.53516	1458.67	11.00122	-8.499757	0.536982
65.58911	1457.914	10.9284	-7.548612	0.5544574
65.64306	1457.209	10.84735	-6.567476	0.5736951
65.69701	1456.555	10.75787	-5.555406	0.5949369
65.75096	1455.95	10.65793	-4.511505	0.6183906
65.80492	1455.397	10.54612	-3.434849	0.6443248
65.85886	1454.896	10.42434	-2.324569	0.6728521
65.91281	1454.448	10.29771	-1.17983	0.704164
65.96677	1454.056	10.16984	0.0001796649	0.7383
66.02071	1453.718	10.04202	1.216257	0.7752455
66.07467	1453.434	9.916018	2.469158	0.8149949
66.12862	1453.208	9.796649	3.759632	0.8573419
66.18256	1453.04	9.691938	5.088377	0.902143
66.23652	1452.934	9.607539	6.456116	0.9490919
66.29047	1452.892	9.545421	7.863585	0.9978735
66.34442	1452.92	9.504165	9.311443	1.048188
66.39837	1453.021	9.484266	10.80043	1.099639
66.45232	1453.202	9.485719	12.33122	1.151973
66.50627	1453.465	9.508047	13.90455	1.204817
66.56022	1453.816	9.551166	15.52116	1.257869
66.61417	1454.256	9.614364	17.18167	1.310875
66.66812	1454.789	9.695061	18.8868	1.363555
66.72207	1455.415	9.789474	20.63708	1.415816
66.77602	1456.134	9.894693	22.4331	1.467428
66.82997	1456.946	10.00913	24.27542	1.518398
66.88393	1457.854	10.12938	26.16448	1.568645
66.93787	1458.861	10.25321	28.10075	1.618155
66.99182	1459.972	10.37789	30.08462	1.667036
67.04578	1461.189	10.50023	32.1166	1.715235
67.09972	1462.512	10.61789	34.19712	1.762839
67.15368	1463.944	10.72843	36.3266	1.809896
67.20763	1465.489	10.83003	38.50556	1.856537
67.26157	1467.151	10.92527	40.73437	1.902887
67.31553	1468.935	11.01885	43.01352	1.948994
67.36948	1470.841	11.11206	45.34346	1.995003
67.42343	1472.871	11.20435	47.72458	2.040998
67.47738	1475.025	11.2967	50.15738	2.087139
67.53133	1477.311	11.39173	52.64219	2.133524
67.58528	1479.736	11.49525	55.17953	2.180252
67.63923	1482.31	11.61267	57.76978	2.227343
67.69318	1485.039	11.74569	60.41326	2.274949
67.74713	1487.923	11.89039	63.1104	2.322979
67.80108	1490.958	12.04214	65.86143	2.371509
67.85503	1494.14	12.19603	68.66669	2.420481
67.90898	1497.462	12.34714	71.52633	2.469737
67.96294	1500.919	12.48993	74.44051	2.519347
68.01688	1504.508	12.61969	77.40932	2.569008
68.07083	1508.233	12.73196	80.4327	2.618684
68.12479	1512.095	12.82737	83.51064	2.668126
68.17873	1516.099	12.90961	86.643	2.71712
68.23269	1520.255	12.98527	89.82962	2.765659
68.28664	1524.574	13.05843	93.07029	2.813372
68.34058	1529.067	13.13225	96.36476	2.860346
68.39454	1533.742	13.20707	99.71272	2.906311
68.44849	1538.605	13.2819	103.1138	2.9512
68.50244	1543.661	13.35518	106.5676	2.995036
68.55639	1548.916	13.42525	110.0736	3.03765
68.61034	1554.369	13.48882	113.6314	3.079217
68.66429	1560.021	13.54203	117.2403	3.119575
68.71824	1565.872	13.58152	120.8996	3.158777
68.77219	1571.921	13.60668	124.6086	3.196985
68.82614	1578.172	13.61857	128.3664	3.234214
68.88009	1584.625	13.62368	132.1721	3.270719
68.93404	1591.282	13.62961	136.0246	3.306586
68.98799	1598.151	13.64096	139.9228	3.342069
69.04195	1605.24	13.66326	143.8654	3.377332
69.09589	1612.558	13.70321	147.8512	3.412501
69.14984	1620.112	13.76633	151.8786	3.447894
69.2038	1627.904	13.85706	155.946	3.483616
69.25774	1635.932	13.98001	160.0518	3.519958
69.31169	1644.197	14.13826	164.194	3.557141
69.36565	1652.7	14.33156	168.3705	3.595388
69.41959	1661.441	14.55249	172.5791	3.634923
69.47355	1670.422	14.79004	176.8175	3.675829
69.5275	1679.647	15.03211	181.0829	3.718233
69.58144	1689.121	15.27064	185.3728	3.762217
69.6354	1698.849	15.50325	189.6839	3.807727
69.68935	1708.835	15.73244	194.0132	3.85466
69.7433	1719.083	15.96311	198.3569	3.902816
69.79725	1729.592	16.20121	202.7114	3.951878
69.8512	1740.366	16.44915	207.0723	4.001486
69.90515	1751.406	16.70744	211.4351	4.05118
69.9591	1762.716	16.97576	215.795	4.100457
70.01305	1774.3	17.24968	220.1467	4.148744
70.067	1786.162	17.52102	224.4844	4.195414
70.12095	1798.302	17.7816	228.8022	4.239821
70.1749	1810.723	18.0259	233.0935	4.281353
70.22885	1823.422	18.25283	237.3517	4.319339
70.28281	1836.4	18.45808	241.5696	4.353204
70.33675	1849.658	18.63721	245.7398	4.382382
70.3907	1863.196	18.79034	249.8547	4.406213
70.44466	1877.016	18.92265	253.9063	4.424245
70.4986	1891.123	19.0417	257.8863	4.435891
70.55256	1905.516	19.15809	261.7864	4.440702
70.60651	1920.194	19.28402	265.598	4.438269
70.66045	1935.152	19.43123	269.3124	4.428085
70.71441	1950.392	19.6091	272.9211	4.410003
70.76836	1965.91	19.82224	276.4151	4.383462
70.82231	1981.703	20.0715	279.7858	4.348609
70.87626	1997.76	20.35605	283.0246	4.305396
70.93021	2014.067	20.66922	286.123	4.253794
70.98416	2030.611	21.0025	289.0725	4.194377
71.03811	2047.388	21.34697	291.8651	4.127124
71.09206	2064.396	21.69247	294.4929	4.053114
71.14601	2081.642	22.02934	296.9482	3.97272
71.19996	2099.128	22.34666	299.224	3.886898
71.25391	2116.853	22.63887	301.3133	3.796866
71.30786	2134.812	22.91335	303.21	3.703497
71.36182	2153.002	23.18387	304.9081	3.60837
71.41576	2171.418	23.46293	306.4019	3.512387
71.46971	2190.053	23.76137	307.6873	3.417254
71.52367	2208.9	24.08478	308.7593	3.324115
71.57761	2227.956	24.43575	309.6151	3.234526
71.63157	2247.215	24.81035	310.2511	3.149908
71.68552	2266.673	25.20024	310.6653	3.071579
71.73946	2286.318	25.59552	310.8561	3.000795
71.79342	2306.135	25.9861	310.822	2.938327
71.84737	2326.099	26.36325	310.5632	2.885582
71.90132	2346.179	26.71993	310.0792	2.842733
71.95527	2366.346	27.04839	309.3709	2.810629
72.00922	2386.57	27.33996	308.4398	2.789358
72.06317	2406.825	27.58831	307.2874	2.778711
72.11712	2427.094	27.79252	305.9161	2.778604
72.17107	2447.351	27.95772	304.3283	2.787958
72.22502	2467.568	28.09016	302.5275	2.80636
72.27897	2487.707	28.19489	300.5171	2.832761
72.33292	2507.73	28.27856	298.3013	2.866117
72.38687	2527.599	28.35133	295.8846	2.90574
72.44083	2547.276	28.4231	293.2719	2.950391
72.49477	2566.724	28.49821	290.4685	2.999295
72.54872	2585.906	28.5743	287.48	3.051927
72.60268	2604.777	28.64491	284.3125	3.107319
72.65662	2623.297	28.70087	280.9724	3.165393
72.71058	2641.429	28.73434	277.4663	3.225348
72.76453	2659.147	28.73822	273.8014	3.286843
72.81847	2676.433	28.70768	269.9847	3.349859
72.87243	2693.269	28.64026	266.024	3.413653
72.92638	2709.639	28.53041	261.9272	3.478365
72.98033	2725.526	28.37732	257.7021	3.543349
73.03428	2740.917	28.18627	253.357	3.608265
73.08823	2755.803	27.96842	248.9007	3.672966
73.14218	2770.179	27.73244	244.3414	3.73669
73.19613	2784.042	27.48277	239.6882	3.799319
73.25008	2797.396	27.22251	234.9499	3.860059
73.30403	2810.242	26.95664	230.1355	3.918455
73.35798	2822.591	26.68994	225.2542	3.973991
73.41193	2834.449	26.42755	220.3152	4.025924
73.46588	2845.821	26.1738	215.3279	4.073746
73.51984	2856.71	25.93324	210.3017	4.116707
73.57378	2867.12	25.7065	205.2458	4.154151
73.62773	2877.057	25.49158	200.1698	4.185409
73.68169	2886.541	25.28457	195.083	4.209774
73.73563	2895.589	25.08199	189.9948	4.226574
73.78959	2904.225	24.88004	184.9144	4.235274
73.84354	2912.471	24.67495	179.8511	4.235354
73.89748	2920.349	24.46489	174.8138	4.226335
73.95144	2927.874	24.24811	169.8113	4.207902
74.00539	2935.06	24.02342	164.8522	4.179743
74.05934	2941.924	23.79488	159.9449	4.141712
74.11329	2948.481	23.5706	155.0972	4.093859
74.16724	2954.748	23.35551	150.3167	4.036026
74.22119	2960.737	23.15218	145.6108	3.968654
74.27514	2966.459	22.96237	140.9861	3.891814
74.32909	2971.929	22.78653	136.4493	3.805957
74.38304	2977.158	22.62619	132.0062	3.711783
74.43699	2982.16	22.48197	127.6621	3.609628
74.49094	2986.948	22.35117	123.4221	3.500425
74.54489	2991.536	22.23002	119.2906	3.384855
74.59885	2995.931	22.11249	115.2714	3.263769
74.65279	3000.148	21.99326	111.3679	3.138217
74.70674	3004.205	21.86647	107.5828	3.008756
74.7607	3008.119	21.73015	103.9183	2.876811
74.81464	3011.908	21.58579	100.3761	2.743279
74.8686	3015.59	21.43491	96.95736	2.609222
74.92255	3019.182	21.27669	93.66256	2.475838
74.97649	3022.7	21.11327	90.49178	2.34381
75.03045	3026.155	20.95204	87.4445	2.214667
75.0844	3029.554	20.80368	84.51988	2.089196
75.13835	3032.908	20.67837	81.71639	1.968619
75.1923	3036.22	20.58248	79.03224	1.854018
75.24625	3039.489	20.5167	76.46503	1.746211
75.3002	3042.709	20.4801	74.01215	1.646452
75.35415	3045.878	20.46958	71.67062	1.555476
75.4081	3048.993	20.48405	69.43696	1.47422
75.46205	3052.056	20.51847	67.30766	1.403273
75.516	3055.074	20.5658	65.27862	1.343005
75.56995	3058.052	20.61972	63.34583	1.293772
75.6239	3060.994	20.67717	61.50488	1.255439
75.67786	3063.897	20.73802	59.75125	1.227645
75.7318	3066.759	20.80326	58.08035	1.209707
75.78575	3069.573	20.8752	56.48734	1.200635
75.83971	3072.334	20.95912	54.96757	1.199397
75.89365	3075.036	21.06134	53.51622	1.204753
75.94761	3077.675	21.18326	52.12857	1.215434
76.00156	3080.248	21.32334	50.80005	1.23021
76.0555	3082.754	21.48201	49.52608	1.247826
76.10946	3085.188	21.65725	48.30242	1.267272
76.16341	3087.546	21.84314	47.12485	1.287591
76.21736	3089.824	22.03226	45.98941	1.307992
76.27131	3092.022	22.21536	44.89236	1.32787
76.32526	3094.138	22.38477	43.83015	1.346767
76.37921	3096.182	22.53562	42.79956	1.364528
76.43316	3098.163	22.66836	41.79755	1.381149
76.48711	3100.092	22.78473	40.8214	1.396847
76.54106	3101.977	22.8882	39.86863	1.412063
76.59501	3103.826	22.9868	38.93703	1.427415
76.64896	3105.647	23.09129	38.02467	1.44376
76.70291	3107.452	23.20933	37.12989	1.462097
76.75687	3109.247	23.34256	36.2513	1.483573
76.81081	3111.035	23.48566	35.38774	1.509393
76.86476	3112.819	23.62633	34.5383	1.540764
76.91872	3114.599	23.75019	33.70224	1.578823
76.97266	3116.372	23.84621	32.87906	1.624531
77.02662	3118.135	23.90844	32.06841	1.67859
77.08057	3119.888	23.93489	31.2701	1.741397
77.13451	3121.633	23.92877	30.4841	1.813023
77.18847	3123.372	23.89339	29.71047	1.893227
77.24242	3125.103	23.83233	28.94939	1.981474
77.29637	3126.825	23.74888	28.20107	2.076989
77.35032	3128.528	23.65373	27.46584	2.178797
77.40427	3130.199	23.56248	26.74402	2.285777
77.45822	3131.824	23.49078	26.036	2.396725
77.51217	3133.393	23.44921	25.34213	2.510379
77.56612	3134.901	23.4421	24.66275	2.625529
77.62007	3136.348	23.46421	23.99813	2.740944
77.67402	3137.733	23.50125	23.34848	2.855474
77.72797	3139.057	23.53164	22.71396	2.967997
77.78192	3140.321	23.5356	22.09465	3.077442
77.83588	3141.525	23.49974	21.49057	3.182827
77.88982	3142.668	23.4157	20.90172	3.283211
77.94377	3143.752	23.27815	20.32799	3.377819
77.99773	3144.774	23.08791	19.76931	3.465941
78.05167	3145.726	22.84826	19.22555	3.546964
78.10563	3146.603	22.56232	18.69662	3.620389
78.15958	3147.403	22.23694	18.18242	3.685829
78.21352	3148.125	21.88477	17.68288	3.743036
78.26748	3148.77	21.51929	17.19806	3.791823
78.32143	3149.34	21.14988	16.72797	3.832203
78.37538	3149.843	20.77883	16.27276	3.864223
78.42933	3150.284	20.40009	15.83266	3.888026
78.48328	3150.674	19.99737	15.40795	3.90383
78.53723	3151.025	19.55321	14.99909	3.91182
78.59118	3151.35	19.05883	14.60652	3.912362
78.64513	3151.66	18.51378	14.23088	3.905699
78.69908	3151.961	17.9242	13.87278	3.892229
78.75303	3152.261	17.29825	13.53292	3.872295
78.80698	3152.565	16.64248	13.21205	3.846287
78.86093	3152.875	15.96426	12.91095	3.814652
78.91489	3153.19	15.27823	12.63044	3.777804
78.96883	3153.511	14.60157	12.37127	3.736333
79.02278	3153.836	13.95412	12.13425	3.690713
79.07674	3154.163	13.35714	11.92011	3.641568
79.13068	3154.497	12.82955	11.72954	3.589478
79.18464	3154.841	12.38192	11.56321	3.535047
79.23859	3155.202	12.01313	11.42163	3.478876
79.29253	3155.588	11.71248	11.30529	3.421483
79.34649	3156.006	11.46558	11.2145	3.363432
79.40044	3156.46	11.25685	11.14952	3.305153
79.45439	3156.948	11.07091	11.11037	3.247156
79.50834	3157.465	10.90071	11.09701	3.189869
79.56229	3158.001	10.7505	11.10914	3.133748
79.61624	3158.545	10.62683	11.14633	3.079225
79.67019	3159.088	10.53189	11.20799	3.026713
79.72414	3159.62	10.4642	11.29328	2.976713
79.77809	3160.136	10.42359	11.40132	2.929589
79.83204	3160.628	10.40994	11.53096	2.885795
79.88599	3161.098	10.4237	11.68101	2.845671
79.93994	3161.552	10.46864	11.85008	2.809534
79.9939	3161.996	10.54655	12.03664	2.777662
80.04784	3162.438	10.65189	12.23906	2.750189
80.10179	3162.881	10.77719	12.45554	2.727246
80.15575	3163.326	10.91295	12.68425	2.708817
80.20969	3163.769	11.05103	12.92328	2.694837
80.26365	3164.213	11.18346	13.17074	2.685173
80.3176	3164.66	11.30674	13.42476	2.679585
80.37154	3165.112	11.42678	13.6835	2.677804
80.4255	3165.567	11.54978	13.94528	2.679454
80.47945	3166.026	11.67892	14.20847	2.684114
80.5334	3166.501	11.81905	14.47164	2.691293
80.58735	3167.004	11.97252	14.7335	2.700398
80.6413	3167.544	12.14214	14.99291	2.710797
80.69525	3168.131	12.32915	15.24885	2.721809
80.7492	3168.772	12.5287	15.50047	2.732773
80.80315	3169.48	12.72984	15.74701	2.74303
80.8571	3170.262	12.92324	15.98786	2.752001
80.91105	3171.127	13.10099	16.22249	2.759165
80.965	3172.074	13.25921	16.45052	2.7641
81.01895	3173.103	13.39577	16.67161	2.766475
81.07291	3174.211	13.5138	16.88549	2.766018
81.12685	3175.391	13.61896	17.09198	2.762614
81.1808	3176.631	13.71664	17.29094	2.756152
81.23476	3177.914	13.81443	17.48228	2.74668
81.2887	3179.224	13.92273	17.66589	2.73429
81.34266	3180.549	14.04594	17.84168	2.719136
81.39661	3181.88	14.18033	18.00953	2.701474
81.45055	3183.221	14.31656	18.16925	2.681531
81.50451	3184.572	14.44567	18.32058	2.659672
81.55846	3185.937	14.5624	18.46314	2.636207
81.61241	3187.314	14.66539	18.59653	2.611516
81.66636	3188.708	14.75542	18.72016	2.586021
81.72031	3190.125	14.83688	18.8334	2.560104
81.77426	3191.563	14.91418	18.93553	2.534215
81.82821	3193.017	14.99185	19.0257	2.508726
81.88216	3194.476	15.075	19.10308	2.484007
81.93611	3195.929	15.16623	19.16669	2.460423
81.99006	3197.366	15.26072	19.21554	2.438248
82.04401	3198.777	15.35458	19.24851	2.417807
82.09796	3200.151	15.44704	19.26444	2.399388
82.15192	3201.477	15.5411	19.26211	2.38326
82.20586	3202.747	15.63712	19.24016	2.369728
82.25981	3203.962	15.73228	19.19727	2.359019
82.31377	3205.13	15.82568	19.13205	2.351368
82.36771	3206.255	15.91327	19.04313	2.346928
82.42167	3207.343	15.98668	18.9292	2.345761
82.47562	3208.401	16.03806	18.78895	2.347941
82.52956	3209.433	16.06141	18.62129	2.353399
82.58352	3210.443	16.05602	18.42515	2.362062
82.63747	3211.432	16.02536	18.19968	2.373782
82.69142	3212.399	15.97921	17.94424	2.388318
82.74537	3213.343	15.92847	17.65828	2.405502
82.79932	3214.268	15.87964	17.34152	2.425055
82.85327	3215.175	15.8366	16.99378	2.446818
82.90722	3216.06	15.80169	16.61512	2.470607
82.96117	3216.924	15.77277	16.20579	2.496241
83.01512	3217.771	15.74547	15.76617	2.523649
83.06907	3218.606	15.71526	15.29688	2.552666
83.12302	3219.442	15.67459	14.7986	2.583234
83.17697	3220.288	15.61695	14.27223	2.615252
83.23093	3221.15	15.5398	13.71878	2.648597
83.28487	3222.026	15.44345	13.13936	2.683195
83.33882	3222.914	15.32853	12.53516	2.718905
83.39278	3223.808	15.20093	11.90745	2.755649
83.44672	3224.713	15.07089	11.25752	2.793341
83.50068	3225.63	14.94858	10.5867	2.831876
83.55463	3226.557	14.84124	9.896254	2.871209
83.60857	3227.483	14.75288	9.187475	2.911231
83.66253	3228.406	14.68304	8.461585	2.951846
83.71648	3229.323	14.62503	7.719765	2.992926
83.77043	3230.232	14.57204	6.963155	3.034297
83.82438	3231.123	14.5223	6.192789	3.075827
83.87833	3231.992	14.47588	5.409689	3.117316
83.93228	3232.829	14.43191	4.61476	3.158593
83.98623	3233.628	14.3865	3.808841	3.199471
84.04018	3234.376	14.33678	2.992741	3.239712
84.09413	3235.061	14.28154	2.167115	3.279136
84.14808	3235.666	14.2197	1.332559	3.31752
84.20203	3236.175	14.15252	0.4895016	3.354665
84.25598	3236.578	14.08456	-0.3617599	3.390364
84.30994	3236.873	14.02131	-1.220993	3.424375
84.36388	3237.058	13.96965	-2.08813	3.456519
84.41783	3237.142	13.93512	-2.963122	3.486584
84.47179	3237.133	13.91809	-3.846036	3.514391
84.52573	3237.039	13.91699	-4.736969	3.539744
84.57969	3236.867	13.92746	-5.636057	3.562442
84.63364	3236.618	13.94213	-6.543465	3.582305
84.68758	3236.283	13.95713	-7.459303	3.599113
84.74154	3235.854	13.96941	-8.383654	3.612663
84.79549	3235.322	13.97554	-9.316545	3.622737
84.84944	3234.68	13.97498	-10.25793	3.629133
84.90339	3233.928	13.96571	-11.20769	3.63166
84.95734	3233.066	13.94779	-12.16557	3.630148
85.01129	3232.099	13.92487	-13.13122	3.624447
85.06524	3231.037	13.89732	-14.10413	3.614449
85.11919	3229.898	13.86066	-15.08369	3.600065
85.17314	3228.69	13.81555	-16.06915	3.581247
85.22709	3227.429	13.76722	-17.05967	3.557971
85.28104	3226.127	13.71904	-18.05424	3.530239
85.33499	3224.79	13.67222	-19.05182	3.498088
85.38895	3223.419	13.62825	-20.05123	3.461596
85.44289	3222.015	13.58768	-21.05122	3.420862
85.49684	3220.578	13.55327	-22.05049	3.376023
85.5508	3219.104	13.52544	-23.04771	3.32722
85.60474	3217.592	13.50627	-24.04149	3.274637
85.65869	3216.044	13.49322	-25.0305	3.218502
85.71265	3214.459	13.48023	-26.01332	3.159062
85.76659	3212.841	13.46267	-26.98861	3.096603
85.82055	3211.192	13.43561	-27.955	3.031451
85.8745	3209.523	13.39284	-28.91121	2.963966
85.92844	3207.839	13.33061	-29.85603	2.894556
85.9824	3206.149	13.24846	-30.7883	2.823629
86.03635	3204.449	13.1546	-31.70693	2.751598
86.0903	3202.74	13.06732	-32.61094	2.67887
86.14425	3201.017	13.00412	-33.4994	2.605804
86.1982	3199.278	12.97517	-34.37156	2.532765
86.25215	3197.509	12.98577	-35.22671	2.460048
86.3061	3195.697	13.03889	-36.06432	2.38794
86.36005	3193.829	13.13366	-36.8839	2.316701
86.414	3191.901	13.26434	-37.68509	2.246551
86.46795	3189.908	13.42346	-38.46766	2.177726
86.5219	3187.857	13.60574	-39.23141	2.110382
86.57585	3185.753	13.80519	-39.97635	2.04471
86.62981	3183.605	14.0084	-40.70254	1.980877
86.68375	3181.412	14.20018	-41.41014	1.919069
86.7377	3179.174	14.36598	-42.09942	1.859489
86.79166	3176.879	14.49837	-42.77066	1.802333
86.8456	3174.524	14.59675	-43.42424	1.747837
86.89956	3172.103	14.66987	-44.06055	1.696182
86.95351	3169.614	14.72947	-44.68	1.647577
87.00745	3167.058	14.78515	-45.28304	1.602191
87.06141	3164.439	14.83874	-45.87004	1.560166
87.11536	3161.749	14.88904	-46.44141	1.521654
87.16931	3158.983	14.93587	-46.99752	1.486743
87.22326	3156.148	14.97923	-47.5387	1.455545
87.27721	3153.259	15.01575	-48.06526	1.428109
87.33116	3150.326	15.04095	-48.57749	1.40449
87.38511	3147.361	15.04569	-49.07563	1.384719
87.43906	3144.369	15.02203	-49.55988	1.368784
87.49301	3141.354	14.96439	-50.03041	1.356649
87.54696	3138.319	14.87399	-50.48735	1.348232
87.60091	3135.272	14.75342	-50.93084	1.343458
87.65486	3132.212	14.60897	-51.36094	1.342212
87.70882	3129.138	14.45178	-51.77769	1.344367
87.76276	3126.047	14.29162	-52.18112	1.349784
87.81671	3122.939	14.1321	-52.57124	1.358283
87.87067	3119.817	13.97381	-52.94809	1.369714
87.92461	3116.685	13.81564	-53.31171	1.383847
87.97857	3113.548	13.65673	-53.66221	1.400467
88.03252	3110.409	13.50033	-53.99968	1.419305
88.08646	3107.273	13.35517	-54.3243	1.440057
88.14042	3104.138	13.22947	-54.63623	1.462396
88.19437	3101.007	13.12738	-54.93571	1.485927
88.24832	3097.879	13.05221	-55.223	1.51029
88.30227	3094.75	13.0014	-55.49838	1.535038
88.35622	3091.614	12.97042	-55.7622	1.559762
88.41017	3088.461	12.95753	-56.01482	1.584008
88.46412	3085.281	12.96661	-56.25661	1.607304
88.51807	3082.079	13.00172	-56.48797	1.629178
88.57202	3078.862	13.06327	-56.70932	1.649142
88.62597	3075.645	13.14559	-56.92115	1.666785
88.67992	3072.433	13.24113	-57.12389	1.68169
88.73387	3069.233	13.34134	-57.31807	1.693523
88.78783	3066.044	13.43714	-57.50423	1.701997
88.84177	3062.867	13.52584	-57.68293	1.706889
88.89572	3059.698	13.61114	-57.85477	1.708065
88.94968	3056.537	13.6986	-58.02036	1.70546
89.00362	3053.386	13.79459	-58.18032	1.699121
89.05758	3050.244	13.90099	-58.33525	1.689164
89.11153	3047.104	14.01704	-58.48573	1.675811
89.16547	3043.962	14.14657	-58.63226	1.659333
89.21943	3040.816	14.29217	-58.7753	1.640058
89.27338	3037.672	14.45309	-58.91529	1.618332
89.32733	3034.535	14.62478	-59.05262	1.594523
89.38128	3031.421	14.7953	-59.18765	1.568986
89.43523	3028.334	14.95163	-59.32072	1.542036
89.48918	3025.283	15.0831	-59.45214	1.513957
89.54313	3022.266	15.17919	-59.58219	1.484998
89.59708	3019.281	15.23248	-59.71111	1.455386
89.65103	3016.319	15.24551	-59.8391	1.425318
89.70498	3013.365	15.22419	-59.9663	1.394959
89.75893	3010.397	15.17468	-60.09285	1.364447
89.81288	3007.399	15.10236	-60.21881	1.333897
89.86684	3004.351	15.01624	-60.34423	1.303371
89.92078	3001.25	14.92803	-60.46911	1.272877
89.97473	2998.094	14.84621	-60.59336	1.242356
90.02869	2994.894	14.77737	-60.71691	1.211697
90.08263	2991.649	14.72759	-60.83961	1.180716
90.13659	2988.367	14.69997	-60.96133	1.149186
90.19054	2985.056	14.69391	-61.08189	1.116848
90.24448	2981.735	14.70189	-61.20109	1.083422
90.29844	2978.417	14.70982	-61.31874	1.048644
90.35239	2975.11	14.70425	-61.43464	1.012276
90.40634	2971.803	14.67749	-61.54859	0.9741173
90.46029	2968.487	14.62428	-61.66038	0.9339861
90.51424	2965.155	14.54007	-61.7698	0.8917513
90.56819	2961.803	14.4239	-61.87663	0.847336
90.62214	2958.421	14.27701	-61.98063	0.8007318
90.67609	2955.008	14.10948	-62.08156	0.751993
90.73004	2951.56	13.93528	-62.17918	0.7012163
90.78399	2948.083	13.76988	-62.2733	0.6485689
90.83794	2944.579	13.63113	-62.36374	0.5942371
90.89189	2941.056	13.53695	-62.45036	0.5384828
90.94585	2937.522	13.50007	-62.53313	0.4816071
90.99979	2933.99	13.52141	-62.61203	0.4239759
91.05374	2930.468	13.58817	-62.68711	0.366036
91.1077	2926.96	13.68565	-62.75843	0.3083076
91.16164	2923.466	13.80245	-62.82607	0.2514023
91.2156	2919.979	13.92768	-62.89007	0.1960103
91.26955	2916.486	14.05278	-62.95052	0.1430019
91.32349	2912.974	14.17033	-63.00747	0.09388985
91.37745	2909.428	14.27712	-63.06095	0.05332407
91.4314	2905.842	14.37592	-63.11094	0.04132563
91.48535	2902.211	14.47631	-63.15747	0.06691822
91.5393	2898.546	14.58418	-63.20056	0.1008954
91.59325	2894.864	14.70311	-63.24026	0.1335732
91.6472	2891.188	14.83441	-63.27664	0.1629713
91.70115	2887.539	14.97513	-63.30976	0.1885059
91.7551	2883.931	15.11669	-63.33973	0.2099987
91.80905	2880.367	15.25142	-63.36668	0.2274964
91.863	2876.842	15.37563	-63.39076	0.2411376
91.91695	2873.353	15.48415	-63.41212	0.2511844
91.9709	2869.894	15.57113	-63.43093	0.2579778
92.02486	2866.459	15.63352	-63.44733	0.2619342
92.0788	2863.039	15.67146	-63.46147	0.2635907
92.13275	2859.622	15.68468	-63.4735	0.263571
92.18671	2856.201	15.67347	-63.48351	0.2626267
92.24065	2852.773	15.64061	-63.49164	0.2616228
92.29461	2849.334	15.58942	-63.49798	0.2614951
92.34856	2845.892	15.52795	-63.50266	0.2632092
92.4025	2842.448	15.46221	-63.50581	0.2676821
92.45646	2839.018	15.3913	-63.51987	0.2750341
92.51041	2835.611	15.31302	-63.5379	0.284617
92.56436	2832.237	15.2259	-63.55828	0.296101
92.61831	2828.899	15.12994	-63.57964	0.3094575
92.67226	2825.6	15.02585	-63.60106	0.3246875
92.72621	2822.332	14.91295	-63.62201	0.3417444
92.78016	2819.095	14.79365	-63.64221	0.3605205
92.83411	2815.878	14.67285	-63.66159	0.3808724
92.88806	2812.676	14.55676	-63.68015	0.4026487
92.94201	2809.476	14.45092	-63.69798	0.4256897
92.99596	2806.269	14.35978	-63.71518	0.4498524
93.04991	2803.041	14.28096	-63.73186	0.4750094
93.10387	2799.786	14.20975	-63.74817	0.5010306
93.15781	2796.506	14.14374	-63.76421	0.5278132
93.21176	2793.212	14.0778	-63.78011	0.5552535
93.26572	2789.914	14.00526	-63.79599	0.5832679
93.31966	2786.628	13.91652	-63.81196	0.6117703
93.37362	2783.354	13.80405	-63.82811	0.6406867
93.42757	2780.091	13.66897	-63.84455	0.6699467
93.48151	2776.82	13.52272	-63.86134	0.6994845
93.53547	2773.523	13.38134	-63.87857	0.7292405
93.58942	2770.187	13.25846	-63.89631	0.7591595
93.64337	2766.805	13.1628	-63.91462	0.7891813
93.69732	2763.379	13.09902	-63.93354	0.8192613
93.75127	2759.919	13.06665	-63.95313	0.8493459
93.80522	2756.418	13.06125	-63.97344	0.8793876
93.85917	2752.881	13.07663	-63.99451	0.9093457
93.91312	2749.313	13.10558	-64.01638	0.9391765
93.96707	2745.734	13.14448	-64.03909	0.968846
94.02102	2742.149	13.19382	-64.06266	0.9983113
94.07497	2738.585	13.28428	-64.08714	1.027552
94.12892	2734.976	13.36164	-64.11255	1.056538
94.18288	2731.313	13.4308	-64.13891	1.085242
94.23682	2727.616	13.49724	-64.16623	1.11365
94.29077	2723.893	13.56454	-64.19453	1.141736
94.34473	2720.155	13.63487	-64.22382	1.169492
94.39867	2716.406	13.70962	-64.25409	1.196905
94.45263	2712.652	13.789	-64.28534	1.223955
94.50658	2708.895	13.87267	-64.31757	1.250645
94.56052	2705.139	13.96016	-64.35078	1.276967
94.61448	2701.386	14.05065	-64.38496	1.302914
94.66843	2697.637	14.14357	-64.42007	1.328485
94.72238	2693.893	14.23783	-64.45613	1.353685
94.77633	2690.153	14.33325	-64.4931	1.378513
94.83028	2686.419	14.42955	-64.53096	1.402969
94.88423	2682.689	14.52638	-64.56969	1.427069
94.93818	2678.96	14.62338	-64.60928	1.45082
94.99213	2675.231	14.71998	-64.64969	1.474225
