T[Â°C]	350nm [counts / mm]	S.D.	First derivative	S.D. of first derivative
20.00035	4395.441		-62.41883	
20.05445	4392.249		-62.42491	
20.10856	4389.057		-62.42997	
20.16267	4385.864		-62.43401	
20.21677	4382.672		-62.437	
20.27088	4379.479		-62.43892	
20.32498	4376.286		-62.43974	
20.37909	4373.09		-62.43947	
20.4332	4369.893		-62.43808	
20.4873	4366.691		-62.43558	
20.54141	4363.486		-62.43196	
20.59551	4360.278		-62.42722	
20.64962	4357.067		-62.42138	
20.70372	4353.854		-62.41443	
20.75783	4350.64		-62.40641	
20.81194	4347.424		-62.39732	
20.86604	4344.208		-62.3872	
20.92015	4340.996		-62.37607	
20.97425	4337.717		-62.36398	
21.02836	4334.423		-62.35096	
21.08246	4331.112		-62.33706	
21.13657	4327.777		-62.32235	
21.19068	4324.409		-62.30688	
21.24478	4320.997		-62.29071	
21.29889	4317.535		-62.27392	
21.35299	4314.029		-62.25658	
21.4071	4310.492		-62.23875	
21.46121	4306.941		-62.22054	
21.51531	4303.39		-62.20202	
21.56942	4299.846		-62.18328	
21.62352	4296.31		-62.16442	
21.67763	4292.781		-62.14553	
21.73174	4289.254		-62.12672	
21.78584	4285.723		-62.10809	
21.83995	4282.184		-62.08977	
21.89405	4278.631		-62.07186	
21.94816	4275.061		-62.05448	
22.00226	4271.468		-62.03773	
22.05637	4267.859		-62.02174	
22.11048	4264.246		-62.00658	
22.16458	4260.643		-61.9923	
22.21869	4257.063		-61.97892	
22.27279	4253.526		-61.96634	
22.3269	4250.035		-61.95435	
22.381	4246.583		-61.94248	
22.43511	4243.165		-61.92994	
22.48922	4239.782		-61.91547	
22.54332	4236.436		-61.89731	
22.59743	4233.126		-61.87347	
22.65153	4229.851		-61.83743	
22.70564	4226.599		-61.80009	
22.75974	4223.357		-61.76123	
22.81385	4220.104		-61.72062	
22.86796	4216.823		-61.67806	
22.92206	4213.519		-61.63346	
22.97617	4210.21		-61.58678	
23.03027	4206.921		-61.53813	
23.08438	4203.666		-61.48773	
23.13848	4200.457		-61.43589	
23.19259	4197.306		-61.38298	
23.2467	4194.218		-61.32946	
23.3008	4191.179		-61.27583	
23.35491	4188.174		-61.2226	
23.40901	4185.182		-61.1703	
23.46312	4182.18		-61.11948	
23.51723	4179.145		-61.07065	
23.57133	4176.051		-61.02432	
23.62544	4172.891		-60.98092	
23.67954	4169.667		-60.94082	
23.73365	4166.395		-60.90434	
23.78775	4163.091		-60.8717	
23.84186	4159.775		-60.8431	
23.89597	4156.462		-60.81866	
23.95007	4153.158		-60.79844	
24.00418	4149.863		-60.78242	
24.05828	4146.57		-60.77053	
24.11239	4143.275		-60.76258	
24.1665	4139.981		-60.75836	
24.2206	4136.688		-60.75755	
24.27471	4133.395		-60.75983	
24.32881	4130.092		-60.76478	
24.38292	4126.766		-60.7719	
24.43703	4123.406		-60.78059	
24.49113	4120.008		-60.79018	
24.54524	4116.573		-60.79993	
24.59934	4113.12		-60.80912	
24.65345	4109.672		-60.81701	
24.70755	4106.252		-60.82288	
24.76166	4102.874		-60.82608	
24.81577	4099.533		-60.82599	
24.86987	4096.222		-60.82204	
24.92398	4092.941		-60.81375	
24.97808	4089.694		-60.80076	
25.03219	4086.479		-60.78288	
25.08629	4083.292		-60.76007	
25.1404	4080.122		-60.73248	
25.19451	4076.952		-60.70033	
25.24861	4073.767		-60.66396	
25.30272	4070.558		-60.62377	
25.35682	4067.323		-60.58017	
25.41093	4064.059		-60.53363	
25.46503	4060.761		-60.48467	
25.51914	4057.426		-60.43384	
25.57325	4054.042		-60.38171	
25.62735	4050.602		-60.32884	
25.68146	4047.109		-60.27571	
25.73556	4043.58		-60.22276	
25.78967	4040.03		-60.17038	
25.84377	4036.479		-60.11889	
25.89788	4032.944		-60.0686	
25.95199	4029.435		-60.01976	
26.00609	4025.961		-59.97259	
26.0602	4022.525		-59.92725	
26.1143	4019.128		-59.88385	
26.16841	4015.767		-59.84242	
26.22252	4012.438		-59.80293	
26.27662	4009.135		-59.76526	
26.33073	4005.86		-59.72926	
26.38483	4002.613		-59.69469	
26.43894	3999.393		-59.66125	
26.49304	3996.202		-59.62864	
26.54715	3993.046		-59.5965	
26.60126	3989.935		-59.56451	
26.65536	3986.879		-59.53231	
26.70947	3983.886		-59.49961	
26.76357	3980.954		-59.46614	
26.81768	3978.068		-59.43159	
26.87178	3975.215		-59.39574	
26.92589	3972.383		-59.35834	
26.98	3969.558		-59.31923	
27.0341	3966.732		-59.27832	
27.08821	3963.889		-59.2356	
27.14231	3961.013		-59.19115	
27.19642	3958.088		-59.14515	
27.25053	3955.11		-59.09783	
27.30463	3952.076		-59.04951	
27.35874	3948.989		-59.00058	
27.41284	3945.858		-58.95153	
27.46695	3942.691		-58.90294	
27.52106	3939.492		-58.85549	
27.57516	3936.259		-58.8099	
27.62927	3932.983		-58.7669	
27.68337	3929.662		-58.7271	
27.73748	3926.296		-58.69106	
27.79158	3922.898		-58.6592	
27.84569	3919.484		-58.63182	
27.8998	3916.068		-58.6091	
27.9539	3912.663		-58.59109	
28.00801	3909.273		-58.57769	
28.06211	3905.902		-58.5687	
28.11622	3902.552		-58.56376	
28.17032	3899.229		-58.56244	
28.22443	3895.94		-58.56424	
28.27854	3892.688		-58.56862	
28.33264	3889.468		-58.57504	
28.38675	3886.261		-58.58297	
28.44085	3883.051		-58.59187	
28.49496	3879.829		-58.60126	
28.54906	3876.592		-58.61066	
28.60317	3873.344		-58.61961	
28.65728	3870.095		-58.62774	
28.71138	3866.868		-58.63469	
28.76549	3863.677		-58.64014	
28.81959	3860.529		-58.64382	
28.8737	3857.423		-58.64542	
28.9278	3854.357		-58.64467	
28.98191	3851.325		-58.64128	
29.03602	3848.318		-58.63497	
29.09012	3845.321		-58.62552	
29.14423	3842.318		-58.61276	
29.19833	3839.295		-58.59662	
29.25244	3836.235		-58.57712	
29.30655	3833.128		-58.55441	
29.36065	3829.972		-58.52875	
29.41476	3826.778		-58.50051	
29.46886	3823.558		-58.47023	
29.52297	3820.335		-58.43852	
29.57707	3817.129		-58.40611	
29.63118	3813.945		-58.37373	
29.68529	3810.78		-58.34209	
29.73939	3807.629		-58.31184	
29.7935	3804.48		-58.28357	
29.8476	3801.319		-58.25778	
29.90171	3798.145		-58.23483	
29.95582	3794.955		-58.21494	
30.00992	3791.751		-58.19821	
30.06403	3788.523		-58.18459	
30.11813	3785.267		-58.17391	
30.17224	3781.994		-58.16591	
30.22635	3778.73		-58.16026	
30.28045	3775.502		-58.15663	
30.33456	3772.331		-58.15469	
30.38866	3769.23		-58.15415	
30.44277	3766.202		-58.1547	
30.49687	3763.24		-58.15608	
30.55098	3760.322		-58.15804	
30.60509	3757.418		-58.16034	
30.65919	3754.505		-58.16276	
30.7133	3751.565		-58.16513	
30.7674	3748.585		-58.16727	
30.82151	3745.561		-58.16901	
30.87561	3742.49		-58.17012	
30.92972	3739.374		-58.17034	
30.98383	3736.219		-58.16934	
31.03793	3733.036		-58.16678	
31.09204	3729.838		-58.1623	
31.14614	3726.638		-58.15556	
31.20025	3723.44		-58.14625	
31.25435	3720.241		-58.13408	
31.30846	3717.042		-58.1188	
31.36257	3713.844		-58.10026	
31.41667	3710.643		-58.07832	
31.47078	3707.438		-58.05295	
31.52488	3704.229		-58.0242	
31.57899	3701.013		-57.99224	
31.63309	3697.781		-57.95728	
31.6872	3694.534		-57.91961	
31.74131	3691.273		-57.8796	
31.79541	3688		-57.83765	
31.84952	3684.719		-57.79417	
31.90362	3681.438		-57.74958	
31.95773	3678.174		-57.70427	
32.01184	3674.935		-57.65863	
32.06594	3671.725		-57.61299	
32.12005	3668.543		-57.56765	
32.17415	3665.388		-57.52283	
32.22826	3662.264		-57.47872	
32.28236	3659.165		-57.43547	
32.33647	3656.087		-57.39319	
32.39058	3653.027		-57.352	
32.44468	3649.983		-57.31196	
32.49879	3646.946		-57.27316	
32.55289	3643.905		-57.23567	
32.607	3640.846		-57.19956	
32.66111	3637.759		-57.16493	
32.71521	3634.635		-57.13192	
32.76932	3631.474		-57.10069	
32.82342	3628.279		-57.07139	
32.87753	3625.055		-57.04417	
32.93163	3621.82		-57.01914	
32.98574	3618.593		-56.99635	
33.03984	3615.395		-56.9758	
33.09395	3612.247		-56.95744	
33.14806	3609.16		-56.94118	
33.20216	3606.132		-56.92685	
33.25627	3603.151		-56.91424	
33.31038	3600.207		-56.90307	
33.36448	3597.292		-56.89302	
33.41859	3594.395		-56.88372	
33.47269	3591.502		-56.87489	
33.5268	3588.609		-56.8662	
33.5809	3585.722		-56.85743	
33.63501	3582.838		-56.84839	
33.68911	3579.957		-56.83897	
33.74322	3577.083		-56.82905	
33.79733	3574.221		-56.81864	
33.85143	3571.371		-56.80776	
33.90554	3568.528		-56.79654	
33.95964	3565.687		-56.78515	
34.01375	3562.834		-56.77384	
34.06786	3559.955		-56.76287	
34.12196	3557.037		-56.75247	
34.17607	3554.077		-56.74287	
34.23018	3551.072		-56.73418	
34.28428	3548.023		-56.72649	
34.33839	3544.929		-56.71978	
34.39249	3541.793		-56.71401	
34.4466	3538.618		-56.7091	
34.5007	3535.412		-56.70493	
34.55481	3532.183		-56.70136	
34.60891	3528.942		-56.69825	
34.66302	3525.697		-56.69545	
34.71712	3522.456		-56.69283	
34.77123	3519.216		-56.69028	
34.82534	3515.971		-56.68769	
34.87944	3512.716		-56.68495	
34.93355	3509.444		-56.68193	
34.98766	3506.155		-56.6785	
35.04176	3502.856		-56.67451	
35.09587	3499.558		-56.66979	
35.14997	3496.277		-56.66409	
35.20408	3493.021		-56.65712	
35.25818	3489.798		-56.64854	
35.31229	3486.611		-56.63789	
35.36639	3483.469		-56.62474	
35.4205	3480.371		-56.6086	
35.47461	3477.311		-56.58901	
35.52871	3474.286		-56.56553	
35.58282	3471.291		-56.53771	
35.63692	3468.309		-56.5052	
35.69103	3465.324		-56.46767	
35.74514	3462.334		-56.42489	
35.79924	3459.34		-56.37674	
35.85335	3456.345		-56.3232	
35.90745	3453.356		-56.26442	
35.96156	3450.37		-56.20066	
36.01566	3447.379		-56.13233	
36.06977	3444.376		-56.05989	
36.12387	3441.362		-55.98391	
36.17798	3438.331		-55.905	
36.23209	3435.287		-55.82377	
36.28619	3432.235		-55.74089	
36.3403	3429.185		-55.65704	
36.39441	3426.145		-55.57288	
36.44851	3423.118		-55.48904	
36.50262	3420.103		-55.40609	
36.55672	3417.093		-55.32455	
36.61083	3414.085		-55.24489	
36.66493	3411.08		-55.1675	
36.71904	3408.077		-55.09272	
36.77315	3405.086		-55.02087	
36.82725	3402.108		-54.95223	
36.88136	3399.137		-54.88706	
36.93546	3396.171		-54.82559	
36.98957	3393.207		-54.76803	
37.04367	3390.248		-54.71458	
37.09778	3387.293		-54.66542	
37.15189	3384.345		-54.62069	
37.20599	3381.411		-54.5805	
37.2601	3378.498		-54.54486	
37.31421	3375.618		-54.51371	
37.36831	3372.771		-54.48689	
37.42242	3369.959		-54.46418	
37.47652	3367.178		-54.44532	
37.53063	3364.42		-54.42994	
37.58473	3361.671		-54.41764	
37.63884	3358.912		-54.40798	
37.69294	3356.129		-54.40056	
37.74705	3353.312		-54.39495	
37.80116	3350.464		-54.39076	
37.85526	3347.597		-54.38766	
37.90937	3344.722		-54.38533	
37.96347	3341.839		-54.38353	
38.01758	3338.952		-54.38203	
38.07169	3336.071		-54.38063	
38.12579	3333.199		-54.37922	
38.1799	3330.332		-54.3777	
38.234	3327.458		-54.37605	
38.28811	3324.564		-54.37427	
38.34221	3321.645		-54.37238	
38.39632	3318.698		-54.37041	
38.45042	3315.722		-54.36835	
38.50453	3312.721		-54.36611	
38.55864	3309.699		-54.36355	
38.61274	3306.659		-54.36046	
38.66685	3303.6		-54.35662	
38.72095	3300.532		-54.35182	
38.77506	3297.466		-54.34583	
38.82917	3294.4		-54.3385	
38.88327	3291.342		-54.32967	
38.93738	3288.3		-54.31919	
38.99148	3285.284		-54.307	
39.04559	3282.295		-54.29304	
39.09969	3279.331		-54.27732	
39.1538	3276.386		-54.25988	
39.2079	3273.448		-54.24077	
39.26201	3270.504		-54.22	
39.31612	3267.546		-54.19757	
39.37022	3264.57		-54.17345	
39.42433	3261.576		-54.14753	
39.47844	3258.571		-54.1197	
39.53254	3255.556		-54.08978	
39.58665	3252.529		-54.05761	
39.64075	3249.486		-54.02303	
39.69486	3246.429		-53.9859	
39.74897	3243.367		-53.94613	
39.80307	3240.323		-53.90365	
39.85718	3237.312		-53.85843	
39.91128	3234.334		-53.81052	
39.96539	3231.38		-53.75997	
40.01949	3228.448		-53.70686	
40.0736	3225.539		-53.65128	
40.1277	3222.65		-53.59338	
40.18181	3219.771		-53.53334	
40.23592	3216.892		-53.47141	
40.29002	3214.003		-53.40784	
40.34413	3211.105		-53.34299	
40.39824	3208.194		-53.27719	
40.45234	3205.273		-53.2108	
40.50645	3202.35		-53.14415	
40.56055	3199.438		-53.07758	
40.61466	3196.557		-53.01142	
40.66876	3193.72		-52.94605	
40.72287	3190.937		-52.88181	
40.77697	3188.201		-52.81905	
40.83108	3185.502		-52.75808	
40.88519	3182.834		-52.6992	
40.93929	3180.185		-52.64268	
40.9934	3177.539		-52.58879	
41.0475	3174.882		-52.53775	
41.10161	3172.202		-52.48977	
41.15572	3169.494		-52.44505	
41.20982	3166.751		-52.40371	
41.26393	3163.97		-52.36588	
41.31803	3161.151		-52.33158	
41.37214	3158.294		-52.30079	
41.42624	3155.414		-52.27336	
41.48035	3152.531		-52.24914	
41.53445	3149.662		-52.22792	
41.58856	3146.81		-52.20938	
41.64267	3143.968		-52.19318	
41.69677	3141.13		-52.17891	
41.75088	3138.293		-52.16614	
41.80499	3135.466		-52.15441	
41.85909	3132.654		-52.14322	
41.9132	3129.858		-52.13206	
41.9673	3127.079		-52.12042	
42.02141	3124.315		-52.10778	
42.07551	3121.568		-52.09364	
42.12962	3118.836		-52.07754	
42.18372	3116.115		-52.05905	
42.23783	3113.396		-52.03782	
42.29194	3110.672		-52.01358	
42.34604	3107.937		-51.9862	
42.40015	3105.184		-51.95561	
42.45425	3102.414		-51.92185	
42.50836	3099.627		-51.885	
42.56247	3096.831		-51.84526	
42.61657	3094.03		-51.80289	
42.67068	3091.227		-51.75819	
42.72478	3088.422		-51.71148	
42.77889	3085.611		-51.66311	
42.833	3082.789		-51.61341	
42.8871	3079.949		-51.56272	
42.94121	3077.086		-51.51138	
42.99531	3074.2		-51.45972	
43.04942	3071.285		-51.40811	
43.10352	3068.338		-51.35693	
43.15763	3065.358		-51.30655	
43.21173	3062.347		-51.25737	
43.26584	3059.312		-51.20977	
43.31995	3056.261		-51.16412	
43.37405	3053.207		-51.12077	
43.42816	3050.164		-51.08004	
43.48227	3047.145		-51.04224	
43.53637	3044.164		-51.00759	
43.59048	3041.228		-50.97618	
43.64458	3038.338		-50.94806	
43.69869	3035.494		-50.92308	
43.75279	3032.69		-50.90104	
43.8069	3029.919		-50.88159	
43.861	3027.179		-50.86429	
43.91511	3024.47		-50.84866	
43.96922	3021.789		-50.83418	
44.02332	3019.134		-50.82035	
44.07743	3016.509		-50.80667	
44.13153	3013.926		-50.79266	
44.18564	3011.391		-50.77787	
44.23975	3008.901		-50.76199	
44.29385	3006.445		-50.74478	
44.34796	3004.013		-50.72614	
44.40206	3001.596		-50.70604	
44.45617	2999.182		-50.68454	
44.51027	2996.762		-50.66178	
44.56438	2994.322		-50.6379	
44.61848	2991.858		-50.61309	
44.67259	2989.366		-50.58755	
44.7267	2986.848		-50.56147	
44.7808	2984.3		-50.53504	
44.83491	2981.72		-50.50845	
44.88902	2979.104		-50.48186	
44.94312	2976.456		-50.45543	
44.99723	2973.778		-50.42927	
45.05133	2971.074		-50.40357	
45.10544	2968.342		-50.37847	
45.15955	2965.581		-50.35415	
45.21365	2962.79		-50.33079	
45.26776	2959.967		-50.30857	
45.32186	2957.113		-50.28765	
45.37597	2954.233		-50.26818	
45.43007	2951.336		-50.25029	
45.48418	2948.432		-50.23402	
45.53828	2945.529		-50.21936	
45.59239	2942.629		-50.20618	
45.6465	2939.732		-50.19427	
45.7006	2936.839		-50.18326	
45.75471	2933.949		-50.17271	
45.80882	2931.064		-50.16207	
45.86292	2928.185		-50.15071	
45.91703	2925.314		-50.13799	
45.97113	2922.448		-50.12325	
46.02524	2919.587		-50.10584	
46.07934	2916.744		-50.08516	
46.13345	2913.934		-50.06065	
46.18755	2911.165		-50.03184	
46.24166	2908.439		-49.99837	
46.29576	2905.756		-49.96003	
46.34987	2903.109		-49.9167	
46.40398	2900.487		-49.86839	
46.45808	2897.874		-49.81518	
46.51219	2895.25		-49.75724	
46.5663	2892.597		-49.6948	
46.6204	2889.904		-49.62818	
46.67451	2887.169		-49.55774	
46.72861	2884.395		-49.48393	
46.78272	2881.583		-49.4072	
46.83682	2878.744		-49.32801	
46.89093	2875.893		-49.24685	
46.94503	2873.051		-49.16423	
46.99914	2870.238		-49.08067	
47.05325	2867.472		-48.9967	
47.10735	2864.765		-48.91286	
47.16146	2862.117		-48.82969	
47.21556	2859.52		-48.74773	
47.26967	2856.955		-48.66754	
47.32378	2854.4		-48.58961	
47.37788	2851.84		-48.51444	
47.43199	2849.267		-48.44244	
47.48609	2846.68		-48.37401	
47.5402	2844.088		-48.30946	
47.5943	2841.497		-48.24904	
47.64841	2838.913		-48.19291	
47.70251	2836.344		-48.14117	
47.75662	2833.795		-48.09383	
47.81073	2831.279		-48.05085	
47.86483	2828.805		-48.01215	
47.91894	2826.38		-47.9776	
47.97305	2823.999		-47.94704	
48.02715	2821.65		-47.92029	
48.08126	2819.319		-47.89716	
48.13536	2816.994		-47.87738	
48.18947	2814.664		-47.86073	
48.24358	2812.324		-47.84694	
48.29768	2809.969		-47.83574	
48.35179	2807.596		-47.82688	
48.40589	2805.202		-47.8201	
48.46	2802.781		-47.81516	
48.5141	2800.33		-47.81188	
48.56821	2797.84		-47.81013	
48.62231	2795.312		-47.80985	
48.67642	2792.752		-47.81101	
48.73053	2790.164		-47.81359	
48.78463	2787.553		-47.81757	
48.83874	2784.92		-47.82291	
48.89285	2782.271		-47.82955	
48.94695	2779.613		-47.8374	
49.00106	2776.952		-47.84634	
49.05516	2774.298		-47.85623	
49.10927	2771.653		-47.86692	
49.16337	2769.015		-47.87821	
49.21748	2766.38		-47.88992	
49.27158	2763.745		-47.90179	
49.32569	2761.102		-47.9136	
49.3798	2758.443		-47.92507	
49.4339	2755.755		-47.93594	
49.48801	2753.035		-47.94596	
49.54211	2750.281		-47.95486	
49.59622	2747.504		-47.96242	
49.65033	2744.715		-47.96838	
49.70443	2741.924		-47.97251	
49.75854	2739.14		-47.97459	
49.81264	2736.372		-47.97441	
49.86675	2733.627		-47.97176	
49.92085	2730.907		-47.9665	
49.97496	2728.217		-47.95847	
50.02906	2725.558		-47.94754	
50.08317	2722.928		-47.93358	
50.13728	2720.322		-47.91642	
50.19138	2717.734		-47.89591	
50.24549	2715.151		-47.87191	
50.29959	2712.562		-47.84426	
50.3537	2709.958		-47.81286	
50.40781	2707.334		-47.77761	
50.46191	2704.693		-47.73852	
50.51602	2702.037		-47.69565	
50.57013	2699.373		-47.64915	
50.62423	2696.715		-47.59927	
50.67834	2694.072		-47.54632	
50.73244	2691.448		-47.49065	
50.78655	2688.845		-47.43266	
50.84065	2686.261		-47.37276	
50.89476	2683.702		-47.31135	
50.94886	2681.171		-47.24881	
51.00297	2678.665		-47.18552	
51.05708	2676.179		-47.12181	
51.11118	2673.702		-47.05799	
51.16529	2671.231		-46.99433	
51.21939	2668.76		-46.93105	
51.2735	2666.294		-46.8684	
51.32761	2663.835		-46.8066	
51.38171	2661.389		-46.74589	
51.43582	2658.955		-46.68657	
51.48992	2656.531		-46.62898	
51.54403	2654.112		-46.57348	
51.59813	2651.688		-46.52045	
51.65224	2649.255		-46.47025	
51.70634	2646.82		-46.42321	
51.76045	2644.391		-46.37963	
51.81456	2641.974		-46.33975	
51.86866	2639.563		-46.30377	
51.92277	2637.152		-46.27182	
51.97688	2634.732		-46.24396	
52.03098	2632.297		-46.22018	
52.08509	2629.845		-46.20041	
52.13919	2627.381		-46.18449	
52.1933	2624.908		-46.17223	
52.2474	2622.426		-46.1634	
52.30151	2619.936		-46.15773	
52.35561	2617.438		-46.15494	
52.40972	2614.933		-46.15467	
52.46383	2612.422		-46.15656	
52.51793	2609.907		-46.16024	
52.57204	2607.394		-46.16532	
52.62614	2604.889		-46.1714	
52.68025	2602.395		-46.17809	
52.73436	2599.908		-46.18497	
52.78846	2597.422		-46.19164	
52.84257	2594.934		-46.19762	
52.89667	2592.451		-46.20243	
52.95078	2589.984		-46.20553	
53.00488	2587.531		-46.20639	
53.05899	2585.085		-46.20445	
53.11309	2582.635		-46.19918	
53.1672	2580.172		-46.19008	
53.22131	2577.691		-46.17673	
53.27541	2575.192		-46.15879	
53.32952	2572.676		-46.13598	
53.38363	2570.146		-46.10818	
53.43773	2567.614		-46.07534	
53.49184	2565.089		-46.0376	
53.54594	2562.571		-45.99511	
53.60005	2560.053		-45.94814	
53.65416	2557.53		-45.89699	
53.70826	2554.996		-45.84203	
53.76237	2552.445		-45.78366	
53.81647	2549.875		-45.72232	
53.87058	2547.287		-45.65843	
53.92468	2544.683		-45.5924	
53.97879	2542.056		-45.52462	
54.03289	2539.408		-45.45546	
54.087	2536.743		-45.38526	
54.14111	2534.072		-45.31435	
54.19521	2531.405		-45.24299	
54.24932	2528.752		-45.1715	
54.30342	2526.123		-45.10012	
54.35753	2523.529		-45.02916	
54.41164	2520.971		-44.95884	
54.46574	2518.445		-44.88937	
54.51985	2515.948		-44.82093	
54.57395	2513.474		-44.75368	
54.62806	2511.019		-44.68771	
54.68216	2508.578		-44.62312	
54.73627	2506.143		-44.55989	
54.79037	2503.706		-44.49797	
54.84448	2501.263		-44.43716	
54.89859	2498.821		-44.37725	
54.95269	2496.394		-44.31792	
55.0068	2493.996		-44.2589	
55.06091	2491.639		-44.19988	
55.11501	2489.329		-44.14062	
55.16912	2487.072		-44.08094	
55.22322	2484.869		-44.02073	
55.27733	2482.717		-43.95993	
55.33143	2480.606		-43.89856	
55.38554	2478.529		-43.83671	
55.43964	2476.476		-43.77459	
55.49375	2474.434		-43.71243	
55.54786	2472.385		-43.65054	
55.60196	2470.32		-43.58925	
55.65607	2468.228		-43.52892	
55.71017	2466.098		-43.46994	
55.76428	2463.925		-43.41275	
55.81839	2461.711		-43.35775	
55.87249	2459.46		-43.30534	
55.9266	2457.175		-43.25586	
55.9807	2454.862		-43.20963	
56.03481	2452.525		-43.16692	
56.08891	2450.175		-43.12794	
56.14302	2447.818		-43.09278	
56.19713	2445.453		-43.06155	
56.25123	2443.079		-43.03424	
56.30534	2440.692		-43.01086	
56.35944	2438.296		-42.99132	
56.41355	2435.889		-42.97548	
56.46766	2433.469		-42.96314	
56.52176	2431.033		-42.95406	
56.57587	2428.58		-42.94794	
56.62997	2426.112		-42.94446	
56.68408	2423.643		-42.94323	
56.73819	2421.18		-42.94381	
56.79229	2418.727		-42.94571	
56.8464	2416.282		-42.94838	
56.9005	2413.847		-42.95123	
56.95461	2411.426		-42.95368	
57.00871	2409.025		-42.95515	
57.06282	2406.653		-42.95508	
57.11692	2404.313		-42.95293	
57.17103	2402.005		-42.94821	
57.22514	2399.725		-42.94046	
57.27924	2397.468		-42.92927	
57.33335	2395.23		-42.91428	
57.38745	2393.007		-42.8952	
57.44156	2390.793		-42.87188	
57.49567	2388.579		-42.8442	
57.54977	2386.353		-42.81217	
57.60388	2384.104		-42.77586	
57.65798	2381.819		-42.73544	
57.71209	2379.488		-42.69112	
57.76619	2377.111		-42.64319	
57.8203	2374.695		-42.59197	
57.8744	2372.251		-42.53783	
57.92851	2369.788		-42.48117	
57.98262	2367.313		-42.4224	
58.03672	2364.838		-42.36193	
58.09083	2362.376		-42.30017	
58.14494	2359.939		-42.23746	
58.19904	2357.531		-42.17414	
58.25315	2355.147		-42.11046	
58.30725	2352.786		-42.04661	
58.36136	2350.45		-41.98269	
58.41546	2348.143		-41.91879	
58.46957	2345.864		-41.85494	
58.52367	2343.606		-41.79115	
58.57778	2341.358		-41.72742	
58.63189	2339.113		-41.66376	
58.68599	2336.871		-41.60015	
58.7401	2334.634		-41.53659	
58.7942	2332.408		-41.47307	
58.84831	2330.197		-41.40958	
58.90242	2328.007		-41.34613	
58.95652	2325.847		-41.28274	
59.01063	2323.725		-41.21941	
59.06474	2321.638		-41.15612	
59.11884	2319.58		-41.09284	
59.17295	2317.539		-41.02951	
59.22705	2315.502		-40.9661	
59.28116	2313.462		-40.90253	
59.33526	2311.417		-40.83878	
59.38937	2309.359		-40.77481	
59.44347	2307.282		-40.71063	
59.49758	2305.179		-40.64625	
59.55169	2303.047		-40.58175	
59.60579	2300.889		-40.51719	
59.6599	2298.705		-40.45274	
59.714	2296.497		-40.38854	
59.76811	2294.268		-40.32484	
59.82222	2292.024		-40.26187	
59.87632	2289.773		-40.19994	
59.93043	2287.519		-40.13936	
59.98453	2285.263		-40.08042	
60.03864	2283.012		-40.02335	
60.09274	2280.772		-39.96833	
60.14685	2278.548		-39.91541	
60.20095	2276.344		-39.86457	
60.25506	2274.158		-39.81566	
60.30917	2271.984		-39.76841	
60.36327	2269.814		-39.72247	
60.41738	2267.642		-39.67744	
60.47149	2265.466		-39.63285	
60.52559	2263.284		-39.5882	
60.5797	2261.1		-39.54296	
60.6338	2258.918		-39.4966	
60.68791	2256.742		-39.4486	
60.74201	2254.577		-39.39841	
60.79612	2252.427		-39.34554	
60.85022	2250.296		-39.28951	
60.90433	2248.187		-39.22988	
60.95844	2246.099		-39.16628	
61.01254	2244.03		-39.09838	
61.06665	2241.971		-39.02592	
61.12075	2239.913		-38.94867	
61.17486	2237.85		-38.86646	
61.22897	2235.777		-38.77918	
61.28307	2233.693		-38.68678	
61.33718	2231.602		-38.58922	
61.39128	2229.503		-38.48653	
61.44539	2227.399		-38.37875	
61.49949	2225.29		-38.26594	
61.5536	2223.176		-38.14816	
61.6077	2221.06		-38.02554	
61.66181	2218.945		-37.89818	
61.71592	2216.831		-37.76628	
61.77002	2214.714		-37.63006	
61.82413	2212.591		-37.48978	
61.87823	2210.462		-37.34576	
61.93234	2208.327		-37.19827	
61.98645	2206.193		-37.04759	
62.04055	2204.063		-36.89389	
62.09466	2201.944		-36.73735	
62.14877	2199.835		-36.57807	
62.20287	2197.736		-36.41611	
62.25698	2195.647		-36.25146	
62.31108	2193.573		-36.08408	
62.36519	2191.515		-35.91383	
62.41929	2189.48		-35.74058	
62.4734	2187.47		-35.56407	
62.5275	2185.488		-35.38404	
62.58161	2183.536		-35.20012	
62.63572	2181.609		-35.01194	
62.68982	2179.7		-34.81903	
62.74393	2177.804		-34.62093	
62.79803	2175.927		-34.4171	
62.85214	2174.076		-34.20705	
62.90625	2172.252		-33.99023	
62.96035	2170.457		-33.76615	
63.01446	2168.686		-33.53429	
63.06856	2166.935		-33.29419	
63.12267	2165.2		-33.04536	
63.17677	2163.481		-32.7874	
63.23088	2161.78		-32.51983	
63.28498	2160.093		-32.24229	
63.33909	2158.418		-31.95436	
63.3932	2156.752		-31.65565	
63.4473	2155.096		-31.34567	
63.50141	2153.444		-31.02399	
63.55552	2151.788		-30.69001	
63.60962	2150.124		-30.3432	
63.66373	2148.456		-29.98287	
63.71783	2146.783		-29.60847	
63.77194	2145.106		-29.21929	
63.82604	2143.425		-28.81477	
63.88015	2141.736		-28.39414	
63.93425	2140.043		-27.95677	
63.98836	2138.35		-27.50184	
64.04247	2136.669		-27.02863	
64.09657	2135.013		-26.53627	
64.15068	2133.389		-26.02399	
64.20478	2131.797		-25.49104	
64.25889	2130.233		-24.93648	
64.313	2128.693		-24.35949	
64.3671	2127.172		-23.75924	
64.4212	2125.67		-23.13498	
64.47531	2124.188		-22.48572	
64.52942	2122.733		-21.81063	
64.58353	2121.307		-21.10888	
64.63763	2119.911		-20.37964	
64.69173	2118.539		-19.62217	
64.74584	2117.192		-18.83545	
64.79995	2115.875		-18.01866	
64.85406	2114.592		-17.171	
64.90816	2113.352		-16.29172	
64.96227	2112.162		-15.37979	
65.01637	2111.024		-14.43444	
65.07048	2109.937		-13.45495	
65.12458	2108.899		-12.44071	
65.17869	2107.911		-11.39081	
65.2328	2106.971		-10.30461	
65.2869	2106.074		-9.181558	
65.341	2105.217		-8.021129	
65.39511	2104.4		-6.822437	
65.44922	2103.626		-5.584864	
65.50333	2102.897		-4.307806	
65.55743	2102.216		-2.990719	
65.61153	2101.591		-1.632625	
65.66564	2101.028		-0.2329016	
65.71975	2100.541		1.209044	
65.77385	2100.14		2.693725	
65.82796	2099.835		4.222172	
65.88206	2099.633		5.79503	
65.93617	2099.54		7.412953	
65.99027	2099.564		9.076515	
66.04438	2099.712		10.7869	
66.09849	2099.99		12.54489	
66.1526	2100.397		14.35131	
66.2067	2100.928		16.20692	
66.2608	2101.575		18.11317	
66.31491	2102.327		20.07097	
66.36902	2103.173		22.08133	
66.42312	2104.109		24.14508	
66.47723	2105.135		26.26381	
66.53133	2106.258		28.43847	
66.58544	2107.487		30.67003	
66.63954	2108.835		32.95929	
66.69365	2110.315		35.3079	
66.74776	2111.934		37.71684	
66.80186	2113.692		40.18735	
66.85596	2115.588		42.7202	
66.91007	2117.62		45.31738	
66.96418	2119.782		47.97995	
67.01829	2122.069		50.70918	
67.07239	2124.476		53.50581	
67.1265	2126.999		56.37189	
67.1806	2129.636		59.30841	
67.23471	2132.388		62.31652	
67.28882	2135.259		65.39749	
67.34292	2138.255		68.5518	
67.39703	2141.389		71.7816	
67.45113	2144.673		75.08737	
67.50524	2148.12		78.47009	
67.55934	2151.74		81.92992	
67.61345	2155.54		85.46859	
67.66756	2159.524		89.08649	
67.72166	2163.695		92.78425	
67.77576	2168.057		96.56182	
67.82987	2172.617		100.4208	
67.88398	2177.378		104.3615	
67.93809	2182.344		108.3843	
67.99219	2187.517		112.4888	
68.0463	2192.901		116.6767	
68.1004	2198.498		120.9477	
68.15451	2204.31		125.302	
68.20861	2210.338		129.739	
68.26272	2216.595		134.2598	
68.31683	2223.087		138.864	
68.37093	2229.824		143.5512	
68.42503	2236.81		148.3202	
68.47914	2244.051		153.1718	
68.53325	2251.549		158.1048	
68.58736	2259.313		163.1185	
68.64146	2267.351		168.211	
68.69556	2275.683		173.3829	
68.74967	2284.319		178.6328	
68.80378	2293.263		183.9594	
68.85788	2302.516		189.3608	
68.91199	2312.087		194.8374	
68.96609	2321.981		200.3872	
69.0202	2332.201		206.0088	
69.0743	2342.746		211.6998	
69.12841	2353.626		217.4604	
69.18252	2364.851		223.2881	
69.23663	2376.44		229.181	
69.29073	2388.408		235.1362	
69.34483	2400.768		241.1529	
69.39894	2413.528		247.2279	
69.45305	2426.698		253.3583	
69.50715	2440.281		259.5401	
69.56126	2454.282		265.7714	
69.61536	2468.693		272.0477	
69.66947	2483.507		278.3647	
69.72357	2498.708		284.717	
69.77768	2514.285		291.1012	
69.83179	2530.222		297.511	
69.88589	2546.508		303.9404	
69.93999	2563.131		310.3819	
69.9941	2580.1		316.8302	
70.04821	2597.426		323.2766	
70.10232	2615.122		329.7129	
70.15643	2633.206		336.1299	
70.21053	2651.69		342.5173	
70.26463	2670.596		348.8666	
70.31874	2689.931		355.1659	
70.37285	2709.698		361.4037	
70.42695	2729.884		367.5671	
70.48106	2750.477		373.6452	
70.53516	2771.448		379.624	
70.58927	2792.776		385.4901	
70.64337	2814.448		391.229	
70.69748	2836.465		396.8288	
70.75159	2858.817		402.2742	
70.80569	2881.508		407.5514	
70.85979	2904.543		412.6458	
70.9139	2927.955		417.5452	
70.96801	2951.759		422.2349	
71.02212	2975.97		426.7014	
71.07622	3000.588		430.9317	
71.13033	3025.624		434.9148	
71.18443	3051.072		438.6376	
71.23854	3076.932		442.089	
71.29264	3103.188		445.2586	
71.34675	3129.831		448.1378	
71.40086	3156.837		450.7169	
71.45496	3184.18		452.9878	
71.50906	3211.838		454.9441	
71.56317	3239.806		456.5804	
71.61728	3268.077		457.8907	
71.67139	3296.647		458.8708	
71.72549	3325.508		459.5182	
71.77959	3354.659		459.8307	
71.8337	3384.091		459.806	
71.88781	3413.789		459.4434	
71.94191	3443.731		458.7441	
71.99602	3473.895		457.7091	
72.05013	3504.234		456.3396	
72.10423	3534.691		454.6382	
72.15833	3565.194		452.6098	
72.21244	3595.683		450.2579	
72.26655	3626.083		447.5872	
72.32066	3656.332		444.6031	
72.37476	3686.364		441.3134	
72.42886	3716.127		437.724	
72.48297	3745.556		433.842	
72.53708	3774.592		429.6754	
72.59118	3803.174		425.2338	
72.64529	3831.254		420.5249	
72.69939	3858.776		415.5576	
72.7535	3885.694		410.342	
72.80761	3911.962		404.8875	
72.86171	3937.539		399.2061	
72.91582	3962.394		393.3058	
72.96992	3986.495		387.1986	
73.02403	4009.815		380.8958	
73.07813	4032.331		374.4104	
73.13224	4054.038		367.7525	
73.18635	4074.933		360.9353	
73.24046	4095.023		353.9718	
73.29456	4114.314		346.8765	
73.34866	4132.819		339.6611	
73.40277	4150.538		332.3404	
73.45688	4167.473		324.9288	
73.51098	4183.632		317.4419	
73.56509	4199.042		309.8923	
73.61919	4213.739		302.2959	
73.6733	4227.762		294.6674	
73.7274	4241.146		287.0227	
73.78151	4253.927		279.3742	
73.83562	4266.129		271.7374	
73.88972	4277.782		264.1266	
73.94382	4288.911		256.5565	
73.99793	4299.542		249.0387	
74.05204	4309.699		241.5877	
74.10615	4319.397		234.2163	
74.16025	4328.65		226.9378	
74.21436	4337.466		219.7618	
74.26846	4345.853		212.7013	
74.32257	4353.823		205.7671	
74.37667	4361.393		198.97	
74.43078	4368.585		192.3173	
74.48489	4375.432		185.8194	
74.53899	4381.978		179.4839	
74.59309	4388.262		173.3183	
74.6472	4394.322		167.3267	
74.70131	4400.198		161.5155	
74.75542	4405.938		155.8885	
74.80952	4411.574		150.4492	
74.86362	4417.116		145.1981	
74.91773	4422.563		140.1375	
74.97184	4427.907		135.2677	
75.02594	4433.144		130.5886	
75.08005	4438.264		126.0974	
75.13416	4443.251		121.7934	
75.18826	4448.097		117.6737	
75.24236	4452.804		113.7354	
75.29647	4457.394		109.9736	
75.35058	4461.89		106.3848	
75.40469	4466.321		102.9643	
75.45879	4470.706		99.7075	
75.51289	4475.059		96.60759	
75.567	4479.386		93.65971	
75.62111	4483.692		90.85768	
75.67522	4487.974		88.19534	
75.72932	4492.228		85.66634	
75.78342	4496.446		83.2633	
75.83753	4500.611		80.98001	
75.89164	4504.695		78.80959	
75.94574	4508.679		76.74526	
75.99985	4512.542		74.77962	
76.05396	4516.271		72.90633	
76.10806	4519.862		71.11873	
76.16216	4523.32		69.41038	
76.21627	4526.653		67.77444	
76.27038	4529.871		66.20508	
76.32449	4532.979		64.69627	
76.37859	4535.994		63.24234	
76.43269	4538.933		61.83738	
76.4868	4541.814		60.47639	
76.54091	4544.647		59.15442	
76.59501	4547.436		57.86693	
76.64912	4550.175		56.60928	
76.70322	4552.865		55.37773	
76.75733	4555.502		54.16869	
76.81143	4558.084		52.97909	
76.86554	4560.604		51.80574	
76.91965	4563.057		50.64638	
76.97375	4565.447		49.49886	
77.02785	4567.782		48.36153	
77.08196	4570.072		47.23259	
77.13607	4572.314		46.11107	
77.19018	4574.506		44.99619	
77.24428	4576.646		43.88765	
77.29839	4578.745		42.78505	
77.35249	4580.822		41.68881	
77.4066	4582.907		40.59947	
77.4607	4585.019		39.51803	
77.51481	4587.168		38.44527	
77.56892	4589.349		37.38264	
77.62302	4591.539		36.33162	
77.67712	4593.719		35.29394	
77.73123	4595.879		34.27102	
77.78534	4598.007		33.26478	
77.83945	4600.089		32.27702	
77.89355	4602.115		31.30968	
77.94765	4604.075		30.36428	
78.00176	4605.958		29.44281	
78.05587	4607.759		28.54708	
78.10997	4609.479		27.67893	
78.16408	4611.129		26.83978	
78.21819	4612.713		26.03134	
78.27229	4614.227		25.25496	
78.3264	4615.662		24.51187	
78.3805	4617.01		23.80311	
78.43461	4618.264		23.12944	
78.48872	4619.419		22.49168	
78.54282	4620.479		21.89049	
78.59692	4621.459		21.32639	
78.65103	4622.376		20.7996	
78.70514	4623.233		20.3106	
78.75925	4624.025		19.8596	
78.81335	4624.733		19.44668	
78.86745	4625.339		19.07173	
78.92156	4625.828		18.73481	
78.97567	4626.197		18.43572	
79.02977	4626.464		18.17407	
79.08388	4626.643		17.9494	
79.13799	4626.749		17.76134	
79.19209	4626.788		17.60937	
79.24619	4626.762		17.49284	
79.3003	4626.673		17.41115	
79.35441	4626.53		17.36386	
79.40852	4626.342		17.35044	
79.46262	4626.131		17.37021	
79.51672	4625.918		17.42261	
79.57083	4625.727		17.50724	
79.62494	4625.574		17.6236	
79.67904	4625.48		17.77117	
79.73315	4625.466		17.94963	
79.78725	4625.551		18.15878	
79.84136	4625.749		18.39829	
79.89546	4626.068		18.66768	
79.94957	4626.5		18.96659	
80.00368	4627.024		19.29461	
80.05779	4627.623		19.65122	
80.11189	4628.292		20.03576	
80.16599	4629.033		20.44773	
80.2201	4629.849		20.88649	
80.27421	4630.749		21.35127	
80.32831	4631.742		21.84104	
80.38242	4632.836		22.355	
80.43652	4634.039		22.89202	
80.49063	4635.349		23.45091	
80.54473	4636.773		24.03022	
80.59884	4638.318		24.62864	
80.65295	4639.995		25.24452	
80.70705	4641.806		25.87608	
80.76115	4643.747		26.52135	
80.81526	4645.802		27.17848	
80.86937	4647.941		27.84523	
80.92348	4650.128		28.51927	
80.97758	4652.339		29.19802	
81.03168	4654.55		29.87905	
81.08579	4656.746		30.55943	
81.1399	4658.917		31.23622	
81.19401	4661.066		31.90638	
81.24811	4663.208		32.56681	
81.30222	4665.365		33.21457	
81.35632	4667.548		33.84651	
81.41043	4669.772		34.45961	
81.46453	4672.045		35.05088	
81.51864	4674.37		35.61767	
81.57275	4676.737		36.1571	
81.62685	4679.122		36.66663	
81.68095	4681.495		37.1439	
81.73506	4683.834		37.58692	
81.78917	4686.129		37.9936	
81.84328	4688.376		38.36216	
81.89738	4690.577		38.69096	
81.95148	4692.726		38.9786	
82.00559	4694.831		39.22366	
82.0597	4696.905		39.42501	
82.1138	4698.976		39.58179	
82.16791	4701.067		39.69329	
82.22202	4703.207		39.75882	
82.27612	4705.418		39.77793	
82.33022	4707.712		39.75039	
82.38433	4710.081		39.67603	
82.43844	4712.507		39.55477	
82.49255	4714.966		39.38683	
82.54665	4717.45		39.17274	
82.60075	4719.945		38.91306	
82.65486	4722.454		38.60854	
82.70897	4724.974		38.26014	
82.76307	4727.507		37.86906	
82.81718	4730.046		37.43633	
82.87128	4732.589		36.96305	
82.92539	4735.135		36.45033	
82.97949	4737.687		35.89933	
83.0336	4740.239		35.31081	
83.08771	4742.786		34.68551	
83.14182	4745.319		34.02408	
83.19592	4747.834		33.32724	
83.25002	4750.317		32.59524	
83.30413	4752.758		31.82851	
83.35824	4755.141		31.02741	
83.41234	4757.455		30.19248	
83.46645	4759.682		29.32382	
83.52055	4761.815		28.42175	
83.57466	4763.846		27.48656	
83.62876	4765.779		26.51883	
83.68287	4767.619		25.51871	
83.73698	4769.379		24.48677	
83.79108	4771.073		23.4236	
83.84518	4772.717		22.32995	
83.89929	4774.308		21.20624	
83.9534	4775.842		20.05321	
84.00751	4777.302		18.8716	
84.06161	4778.674		17.66213	
84.11572	4779.927		16.42579	
84.16982	4781.046		15.16302	
84.22393	4782.022		13.87471	
84.27804	4782.872		12.56164	
84.33214	4783.601		11.22481	
84.38625	4784.214		9.864697	
84.44035	4784.704		8.482406	
84.49446	4785.077		7.079062	
84.54856	4785.341		5.656174	
84.60267	4785.505		4.214752	
84.65678	4785.578		2.756499	
84.71088	4785.566		1.283048	
84.76498	4785.466		-0.2036744	
84.81909	4785.272		-1.702324	
84.8732	4784.975		-3.210871	
84.92731	4784.58		-4.727415	
84.98141	4784.088		-6.249798	
85.03551	4783.506		-7.776506	
85.08962	4782.838		-9.305406	
85.14373	4782.092		-10.83463	
85.19783	4781.274		-12.36217	
85.25194	4780.388		-13.88674	
85.30605	4779.433		-15.40651	
85.36015	4778.412		-16.91994	
85.41425	4777.327		-18.42544	
85.46836	4776.174		-19.92212	
85.52247	4774.944		-21.40851	
85.57658	4773.628		-22.88341	
85.63068	4772.218		-24.34547	
85.68478	4770.708		-25.79396	
85.73889	4769.097		-27.22755	
85.793	4767.393		-28.64517	
85.8471	4765.601		-30.04571	
85.90121	4763.722		-31.42871	
85.95531	4761.757		-32.79317	
86.00942	4759.713		-34.13842	
86.06352	4757.595		-35.46374	
86.11763	4755.405		-36.76907	
86.17174	4753.155		-38.05385	
86.22585	4750.854		-39.31794	
86.27995	4748.519		-40.56116	
86.33405	4746.141		-41.78397	
86.38816	4743.705		-42.98628	
86.44227	4741.183		-44.1683	
86.49637	4738.563		-45.33016	
86.55048	4735.836		-46.47243	
86.60458	4733.013		-47.5952	
86.65869	4730.109		-48.6988	
86.7128	4727.143		-49.78351	
86.7669	4724.124		-50.84956	
86.82101	4721.055		-51.89745	
86.87511	4717.938		-52.92726	
86.92922	4714.785		-53.93904	
86.98332	4711.592		-54.93272	
87.03743	4708.357		-55.90852	
87.09154	4705.073		-56.86617	
87.14565	4701.735		-57.80558	
87.19975	4698.334		-58.72657	
87.25385	4694.866		-59.62931	
87.30796	4691.321		-60.51358	
87.36207	4687.701		-61.37929	
87.41617	4684.014		-62.2263	
87.47028	4680.272		-63.05481	
87.52438	4676.487		-63.86461	
87.57849	4672.671		-64.65572	
87.63259	4668.831		-65.42808	
87.6867	4664.979		-66.18201	
87.74081	4661.125		-66.91749	
87.79491	4657.285		-67.63468	
87.84901	4653.462		-68.33369	
87.90312	4649.655		-69.01492	
87.95723	4645.85		-69.6784	
88.01134	4642.039		-70.32433	
88.06544	4638.201		-70.95288	
88.11954	4634.329		-71.56447	
88.17365	4630.415		-72.15925	
88.22776	4626.469		-72.73755	
88.28186	4622.503		-73.29967	
88.33597	4618.526		-73.84616	
88.39008	4614.526		-74.3773	
88.44418	4610.496		-74.89347	
88.49828	4606.421		-75.395	
88.55239	4602.293		-75.88236	
88.6065	4598.102		-76.35581	
88.66061	4593.848		-76.81569	
88.71471	4589.524		-77.26231	
88.76881	4585.127		-77.69612	
88.82292	4580.653		-78.11734	
88.87703	4576.115		-78.52618	
88.93113	4571.526		-78.92272	
88.98524	4566.902		-79.30709	
89.03934	4562.264		-79.6792	
89.09345	4557.639		-80.039	
89.14755	4553.042		-80.38642	
89.20166	4548.485		-80.7215	
89.25577	4543.965		-81.0441	
89.30988	4539.478		-81.35417	
89.36398	4535.013		-81.6516	
89.41808	4530.561		-81.93641	
89.47219	4526.11		-82.2085	
89.5263	4521.651		-82.46787	
89.58041	4517.17		-82.71461	
89.63451	4512.667		-82.94881	
89.68861	4508.138		-83.17074	
89.74272	4503.585		-83.38058	
89.79683	4499.014		-83.57863	
89.85093	4494.435		-83.7652	
89.90504	4489.851		-83.94073	
89.95914	4485.274		-84.10556	
90.01325	4480.712		-84.26018	
90.06735	4476.164		-84.40511	
90.12146	4471.613		-84.54099	
90.17557	4467.038		-84.66833	
90.22968	4462.42		-84.78779	
90.28378	4457.746		-84.90005	
90.33788	4453.005		-85.00585	
90.39199	4448.192		-85.1059	
90.4461	4443.314		-85.20098	
90.5002	4438.38		-85.29185	
90.55431	4433.404		-85.37936	
90.60841	4428.404		-85.46433	
90.66252	4423.405		-85.54768	
90.71662	4418.428		-85.63033	
90.77073	4413.493		-85.71318	
90.82484	4408.615		-85.79709	
90.87894	4403.804		-85.88277	
90.93304	4399.06		-85.97081	
90.98715	4394.38		-86.06171	
91.04126	4389.751		-86.15583	
91.09537	4385.166		-86.25349	
91.14947	4380.602		-86.3549	
91.20358	4376.053		-86.46021	
91.25768	4371.502		-86.56947	
91.31179	4366.947		-86.6827	
91.36589	4362.385		-86.79984	
91.42	4357.824		-86.92091	
91.47411	4353.273		-87.0459	
91.52821	4348.747		-87.17482	
91.58231	4344.249		-87.30764	
91.63642	4339.783		-87.44434	
91.69053	4335.346		-87.58487	
91.74464	4330.932		-87.72915	
91.79874	4326.519		-87.87708	
91.85284	4322.081		-88.0286	
91.90695	4317.596		-88.18368	
91.96106	4313.059		-88.34226	
92.01516	4308.466		-88.50429	
92.06927	4303.826		-88.66981	
92.12337	4299.145		-88.83882	
92.17748	4294.435		-89.01133	
92.23159	4289.704		-89.18738	
92.28569	4284.964		-89.3669	
92.3398	4280.22		-89.54999	
92.39391	4275.481		-89.73663	
92.44801	4270.75		-89.97988	
92.50211	4266.03		-90.21748	
92.55622	4261.302		-90.45015	
92.61033	4256.559		-90.67896	
92.66444	4251.788		-90.90502	
92.71854	4246.986		-91.12926	
92.77264	4242.137		-91.35252	
92.82675	4237.229		-91.57536	
92.88086	4232.245		-91.79826	
92.93496	4227.186		-92.02148	
92.98907	4222.057		-92.24537	
93.04317	4216.885		-92.47005	
93.09728	4211.686		-92.69563	
93.15138	4206.479		-92.92218	
93.20549	4201.267		-93.1498	
93.2596	4196.055		-93.37847	
93.31371	4190.836		-93.60822	
93.36781	4185.618		-93.839	
93.42191	4180.396		-94.07083	
93.47602	4175.18		-94.30367	
93.53013	4169.957		-94.53746	
93.58423	4164.716		-94.77215	
93.63834	4159.45		-95.00774	
93.69244	4154.159		-95.24415	
93.74655	4148.849		-95.48132	
93.80065	4143.536		-95.71916	
93.85476	4138.216		-95.95768	
93.90887	4132.893		-96.19678	
93.96297	4127.564		-96.43638	
94.01707	4122.233		-96.67639	
94.07118	4116.898		-96.9168	
94.12529	4111.536		-97.1575	
94.1794	4106.219		-97.39841	
94.2335	4100.942		-97.6394	
94.28761	4095.692		-97.88049	
94.34171	4090.458		-98.12157	
94.39582	4085.232		-98.36256	
94.44992	4080.008		-98.60337	
94.50403	4074.782		-98.844	
94.55814	4069.552		-99.08435	
94.61224	4064.316		-99.32438	
94.66634	4059.075		-99.564	
94.72045	4053.825		-99.80323	
94.77456	4048.568		-100.042	
94.82867	4043.302		-100.2803	
94.88277	4038.03		-100.518	
94.93687	4032.751		-100.7552	
94.99098	4027.469		-100.9919	
