T[Â°C]	330nm [counts / mm]	S.D.	First derivative	S.D. of first derivative
20.00042	3338.019		-48.8583	
20.05437	3335.394		-48.7645	
20.10832	3332.772		-48.67141	
20.16227	3330.152		-48.57905	
20.21622	3327.533		-48.48744	
20.27017	3324.914		-48.39661	
20.32412	3322.295		-48.30659	
20.37807	3319.676		-48.21739	
20.43202	3317.055		-48.12904	
20.48597	3314.433		-48.04156	
20.53992	3311.81		-47.95497	
20.59387	3309.186		-47.86927	
20.64782	3306.561		-47.78448	
20.70177	3303.938		-47.70062	
20.75572	3301.317		-47.61768	
20.80967	3298.702		-47.53566	
20.86362	3296.099		-47.45457	
20.91757	3293.519		-47.3744	
20.97152	3290.974		-47.29513	
21.02547	3288.375		-47.21675	
21.07942	3285.756		-47.13923	
21.13337	3283.125		-47.06253	
21.18732	3280.495		-46.98664	
21.24127	3277.883		-46.91152	
21.29522	3275.298		-46.83711	
21.34917	3272.745		-46.76339	
21.40312	3270.217		-46.69029	
21.45707	3267.705		-46.61777	
21.51102	3265.209		-46.54578	
21.56497	3262.732		-46.47422	
21.61892	3260.272		-46.40304	
21.67287	3257.828		-46.33216	
21.72682	3255.404		-46.26147	
21.78077	3253.005		-46.1909	
21.83472	3250.635		-46.12033	
21.88867	3248.289		-46.04963	
21.94262	3245.965		-45.97869	
21.99657	3243.667		-45.90738	
22.05052	3241.398		-45.83554	
22.10447	3239.162		-45.76304	
22.15842	3236.953		-45.68973	
22.21237	3234.761		-45.61549	
22.26632	3232.579		-45.54023	
22.32027	3230.392		-45.46392	
22.37422	3228.188		-45.38672	
22.42817	3225.957		-45.30897	
22.48212	3223.693		-45.23136	
22.53607	3221.395		-45.155	
22.59002	3219.063		-45.08134	
22.64397	3216.695		-45.02661	
22.69792	3214.285		-44.97287	
22.75187	3211.835		-44.92039	
22.80582	3209.356		-44.86944	
22.85977	3206.862		-44.8203	
22.91372	3204.365		-44.77325	
22.96767	3201.872		-44.72855	
23.02162	3199.381		-44.68644	
23.07557	3196.881		-44.64713	
23.12952	3194.361		-44.61073	
23.18347	3191.813		-44.57732	
23.23742	3189.235		-44.54693	
23.29137	3186.632		-44.51952	
23.34532	3184.016		-44.49499	
23.39927	3181.395		-44.47317	
23.45322	3178.776		-44.45383	
23.50717	3176.171		-44.43668	
23.56112	3173.585		-44.42138	
23.61507	3171.021		-44.40752	
23.66902	3168.485		-44.39476	
23.72297	3165.987		-44.38269	
23.77692	3163.529		-44.37096	
23.83087	3161.106		-44.35915	
23.88482	3158.71		-44.34687	
23.93877	3156.336		-44.33376	
23.99272	3153.982		-44.3195	
24.04667	3151.647		-44.30386	
24.10062	3149.335		-44.28671	
24.15457	3147.042		-44.26793	
24.20852	3144.764		-44.24752	
24.26247	3142.491		-44.22549	
24.31642	3140.214		-44.2019	
24.37037	3137.928		-44.17683	
24.42432	3135.631		-44.15035	
24.47827	3133.321		-44.12254	
24.53222	3131.004		-44.09353	
24.58617	3128.687		-44.06348	
24.64012	3126.372		-44.0326	
24.69407	3124.057		-44.00109	
24.74802	3121.737		-43.96923	
24.80197	3119.409		-43.93727	
24.85592	3117.074		-43.90554	
24.90987	3114.732		-43.87434	
24.96382	3112.391		-43.84399	
25.01777	3110.059		-43.81481	
25.07172	3107.746		-43.78712	
25.12567	3105.454		-43.76122	
25.17962	3103.169		-43.73735	
25.23357	3100.874		-43.71576	
25.28752	3098.558		-43.69664	
25.34147	3096.214		-43.68015	
25.39542	3093.846		-43.6664	
25.44937	3091.461		-43.65545	
25.50332	3089.062		-43.64728	
25.55727	3086.654		-43.64182	
25.61122	3084.249		-43.63891	
25.66517	3081.862		-43.63836	
25.71912	3079.505		-43.63993	
25.77307	3077.177		-43.64332	
25.82702	3074.874		-43.64821	
25.88097	3072.588		-43.65424	
25.93492	3070.31		-43.66103	
25.98887	3068.03		-43.66822	
26.04282	3065.739		-43.67548	
26.09678	3063.435		-43.6825	
26.15072	3061.118		-43.68904	
26.20467	3058.788		-43.6949	
26.25863	3056.44		-43.6999	
26.31257	3054.076		-43.7039	
26.36652	3051.702		-43.70679	
26.42048	3049.324		-43.70846	
26.47442	3046.946		-43.70882	
26.52837	3044.569		-43.7078	
26.58232	3042.189		-43.70534	
26.63627	3039.802		-43.70136	
26.69023	3037.406		-43.69574	
26.74417	3035		-43.68834	
26.79812	3032.581		-43.67898	
26.85208	3030.149		-43.66747	
26.90602	3027.705		-43.65359	
26.95997	3025.251		-43.63713	
27.01393	3022.798		-43.61785	
27.06787	3020.357		-43.59554	
27.12183	3017.926		-43.57003	
27.17578	3015.497		-43.54123	
27.22972	3013.069		-43.50911	
27.28368	3010.641		-43.47377	
27.33763	3008.216		-43.43539	
27.39157	3005.79		-43.39422	
27.44553	3003.365		-43.35058	
27.49948	3000.948		-43.30481	
27.55342	2998.547		-43.25726	
27.60738	2996.169		-43.20826	
27.66133	2993.819		-43.1581	
27.71528	2991.498		-43.10702	
27.76923	2989.206		-43.0552	
27.82318	2986.935		-43.00281	
27.87713	2984.679		-42.94999	
27.93108	2982.432		-42.89688	
27.98503	2980.19		-42.84359	
28.03898	2977.945		-42.7902	
28.09293	2975.689		-42.73685	
28.14688	2973.419		-42.68365	
28.20083	2971.131		-42.63079	
28.25478	2968.817		-42.57846	
28.30873	2966.479		-42.52689	
28.36268	2964.125		-42.4763	
28.41663	2961.766		-42.4269	
28.47058	2959.411		-42.37892	
28.52453	2957.069		-42.33259	
28.57848	2954.742		-42.28811	
28.63243	2952.431		-42.24559	
28.68638	2950.135		-42.2051	
28.74033	2947.847		-42.16664	
28.79428	2945.563		-42.13009	
28.84823	2943.279		-42.09529	
28.90218	2940.993		-42.06203	
28.95613	2938.708		-42.03007	
29.01008	2936.435		-41.99915	
29.06403	2934.186		-41.96897	
29.11798	2931.967		-41.93927	
29.17193	2929.782		-41.90981	
29.22588	2927.642		-41.88043	
29.27983	2925.547		-41.85103	
29.33378	2923.484		-41.82161	
29.38773	2921.444		-41.79222	
29.44168	2919.415		-41.76299	
29.49563	2917.388		-41.73409	
29.54958	2915.356		-41.70568	
29.60353	2913.317		-41.67794	
29.65748	2911.264		-41.65102	
29.71143	2909.186		-41.62506	
29.76538	2907.065		-41.60023	
29.81933	2904.886		-41.57664	
29.87328	2902.642		-41.55442	
29.92723	2900.337		-41.53366	
29.98118	2897.985		-41.51445	
30.03513	2895.603		-41.49689	
30.08908	2893.206		-41.48103	
30.14303	2890.812		-41.46689	
30.19698	2888.43		-41.45449	
30.25093	2886.062		-41.44381	
30.30488	2883.71		-41.43477	
30.35883	2881.37		-41.42726	
30.41278	2879.04		-41.4211	
30.46673	2876.715		-41.41612	
30.52068	2874.39		-41.4121	
30.57463	2872.06		-41.40879	
30.62858	2869.724		-41.40594	
30.68253	2867.378		-41.40324	
30.73648	2865.022		-41.40039	
30.79043	2862.654		-41.39707	
30.84438	2860.284		-41.39294	
30.89833	2857.929		-41.38772	
30.95228	2855.607		-41.3811	
31.00623	2853.332		-41.37285	
31.06018	2851.113		-41.36273	
31.11413	2848.949		-41.35057	
31.16808	2846.84		-41.3362	
31.22203	2844.782		-41.31956	
31.27598	2842.764		-41.30062	
31.32993	2840.771		-41.27938	
31.38388	2838.783		-41.25594	
31.43783	2836.771		-41.2304	
31.49178	2834.705		-41.20287	
31.54573	2832.566		-41.17353	
31.59968	2830.353		-41.14256	
31.65363	2828.075		-41.11017	
31.70758	2825.749		-41.07663	
31.76153	2823.393		-41.04225	
31.81548	2821.033		-41.00734	
31.86943	2818.686		-40.97227	
31.92338	2816.36		-40.9374	
31.97733	2814.064		-40.90312	
32.03128	2811.803		-40.8698	
32.08523	2809.581		-40.83776	
32.13918	2807.399		-40.80729	
32.19313	2805.249		-40.77856	
32.24708	2803.11		-40.7517	
32.30103	2800.959		-40.7267	
32.35498	2798.776		-40.70351	
32.40893	2796.552		-40.68205	
32.46288	2794.28		-40.6622	
32.51683	2791.967		-40.64388	
32.57078	2789.626		-40.62694	
32.62473	2787.282		-40.61124	
32.67868	2784.963		-40.59663	
32.73263	2782.686		-40.58291	
32.78658	2780.463		-40.56989	
32.84053	2778.303		-40.55733	
32.89448	2776.21		-40.54503	
32.94843	2774.185		-40.53276	
33.00238	2772.219		-40.52033	
33.05633	2770.292		-40.50753	
33.11028	2768.373		-40.49423	
33.16423	2766.441		-40.48027	
33.21818	2764.472		-40.46554	
33.27213	2762.456		-40.44996	
33.32608	2760.387		-40.43347	
33.38003	2758.269		-40.41607	
33.43398	2756.111		-40.39778	
33.48793	2753.925		-40.37863	
33.54188	2751.721		-40.35871	
33.59583	2749.509		-40.33813	
33.64978	2747.294		-40.31705	
33.70373	2745.077		-40.29566	
33.75768	2742.854		-40.27415	
33.81163	2740.624		-40.25271	
33.86558	2738.381		-40.23153	
33.91953	2736.119		-40.21078	
33.97348	2733.839		-40.19062	
34.02743	2731.542		-40.17114	
34.08138	2729.236		-40.15239	
34.13533	2726.924		-40.13439	
34.18928	2724.605		-40.11707	
34.24323	2722.281		-40.10033	
34.29718	2719.959		-40.08405	
34.35113	2717.65		-40.06811	
34.40508	2715.364		-40.0524	
34.45903	2713.112		-40.03686	
34.51298	2710.896		-40.02144	
34.56693	2708.718		-40.00609	
34.62088	2706.584		-39.99077	
34.67483	2704.497		-39.97542	
34.72878	2702.448		-39.95995	
34.78273	2700.431		-39.94423	
34.83669	2698.435		-39.9281	
34.89063	2696.447		-39.9114	
34.94458	2694.452		-39.89398	
34.99854	2692.437		-39.87569	
35.05248	2690.384		-39.85639	
35.10643	2688.289		-39.83599	
35.16039	2686.156		-39.8144	
35.21433	2683.997		-39.79161	
35.26828	2681.82		-39.76762	
35.32224	2679.635		-39.74247	
35.37618	2677.45		-39.7163	
35.43013	2675.268		-39.68929	
35.48409	2673.09		-39.66164	
35.53803	2670.916		-39.63361	
35.59198	2668.742		-39.60543	
35.64594	2666.57		-39.57735	
35.69988	2664.397		-39.54959	
35.75383	2662.219		-39.52231	
35.80779	2660.037		-39.49565	
35.86174	2657.845		-39.46967	
35.91568	2655.641		-39.44444	
35.96964	2653.435		-39.41997	
36.02359	2651.247		-39.3963	
36.07753	2649.092		-39.37346	
36.13148	2646.977		-39.35146	
36.18544	2644.9		-39.33036	
36.23938	2642.861		-39.31023	
36.29333	2640.859		-39.29114	
36.34729	2638.89		-39.27324	
36.40123	2636.945		-39.25668	
36.45518	2635.003		-39.24165	
36.50914	2633.038		-39.22834	
36.56308	2631.032		-39.21692	
36.61703	2628.98		-39.20753	
36.67099	2626.884		-39.20029	
36.72493	2624.754		-39.19522	
36.77888	2622.599		-39.19233	
36.83284	2620.43		-39.19156	
36.88679	2618.257		-39.19279	
36.94073	2616.09		-39.19585	
36.99469	2613.928		-39.20049	
37.04864	2611.772		-39.20641	
37.10258	2609.624		-39.21328	
37.15654	2607.49		-39.22078	
37.21049	2605.365		-39.22861	
37.26443	2603.241		-39.23641	
37.31839	2601.111		-39.24386	
37.37234	2598.971		-39.25061	
37.42628	2596.822		-39.25632	
37.48024	2594.668		-39.26067	
37.53419	2592.515		-39.26331	
37.58813	2590.371		-39.26392	
37.64209	2588.237		-39.2622	
37.69604	2586.112		-39.25784	
37.74998	2583.997		-39.25052	
37.80394	2581.894		-39.23993	
37.85789	2579.799		-39.22575	
37.91184	2577.707		-39.20769	
37.96579	2575.62		-39.18544	
38.01974	2573.534		-39.15879	
38.07369	2571.452		-39.12753	
38.12764	2569.374		-39.09155	
38.18159	2567.299		-39.05079	
38.23554	2565.226		-39.00528	
38.28949	2563.164		-38.95509	
38.34344	2561.123		-38.90039	
38.39739	2559.109		-38.84143	
38.45134	2557.113		-38.77851	
38.50529	2555.113		-38.71206	
38.55924	2553.084		-38.64257	
38.61319	2551.01		-38.57061	
38.66714	2548.877		-38.49675	
38.72109	2546.687		-38.42162	
38.77504	2544.444		-38.34586	
38.82899	2542.161		-38.27008	
38.88294	2539.858		-38.19488	
38.93689	2537.549		-38.12077	
38.99084	2535.24		-38.04818	
39.04479	2532.943		-37.97742	
39.09874	2530.664		-37.90876	
39.15269	2528.41		-37.84244	
39.20664	2526.184		-37.77861	
39.26059	2523.982		-37.71735	
39.31454	2521.802		-37.65865	
39.36849	2519.638		-37.60239	
39.42244	2517.491		-37.54841	
39.47639	2515.359		-37.49652	
39.53034	2513.246		-37.44651	
39.58429	2511.157		-37.39819	
39.63824	2509.099		-37.35139	
39.69219	2507.071		-37.30595	
39.74614	2505.077		-37.26174	
39.80009	2503.125		-37.21866	
39.85404	2501.226		-37.1766	
39.90799	2499.39		-37.13547	
39.96194	2497.622		-37.09521	
40.01589	2495.914		-37.05573	
40.06984	2494.258		-37.01695	
40.12379	2492.633		-36.97881	
40.17774	2491.014		-36.9412	
40.23169	2489.378		-36.90405	
40.28564	2487.714		-36.86727	
40.33959	2486.016		-36.83078	
40.39354	2484.281		-36.79454	
40.44749	2482.508		-36.7585	
40.50144	2480.702		-36.72272	
40.55539	2478.865		-36.68731	
40.60934	2476.997		-36.65247	
40.66329	2475.099		-36.61846	
40.71724	2473.168		-36.58563	
40.77119	2471.207		-36.55436	
40.82514	2469.22		-36.52505	
40.87909	2467.208		-36.49808	
40.93304	2465.176		-36.47377	
40.98699	2463.135		-36.45234	
41.04094	2461.088		-36.4339	
41.09489	2459.034		-36.41848	
41.14884	2456.971		-36.40607	
41.20279	2454.895		-36.39656	
41.25674	2452.805		-36.38978	
41.31069	2450.699		-36.38546	
41.36464	2448.579		-36.38332	
41.41859	2446.446		-36.38303	
41.47254	2444.312		-36.38429	
41.52649	2442.191		-36.38683	
41.58044	2440.106		-36.3904	
41.63439	2438.069		-36.39481	
41.68834	2436.077		-36.3999	
41.74229	2434.122		-36.40551	
41.79624	2432.194		-36.41148	
41.85019	2430.289		-36.4177	
41.90414	2428.398		-36.42408	
41.95809	2426.508		-36.43054	
42.01204	2424.601		-36.43705	
42.06599	2422.663		-36.44355	
42.11994	2420.684		-36.45	
42.17389	2418.667		-36.45632	
42.22784	2416.62		-36.46238	
42.28179	2414.548		-36.46805	
42.33574	2412.46		-36.47317	
42.38969	2410.365		-36.47753	
42.44364	2408.274		-36.48093	
42.49759	2406.197		-36.48315	
42.55154	2404.138		-36.48393	
42.60549	2402.1		-36.48306	
42.65944	2400.08		-36.48032	
42.71339	2398.074		-36.47557	
42.76734	2396.076		-36.46867	
42.82129	2394.079		-36.45955	
42.87524	2392.076		-36.44816	
42.92919	2390.074		-36.43449	
42.98314	2388.081		-36.41854	
43.03709	2386.107		-36.40036	
43.09104	2384.159		-36.37999	
43.14499	2382.243		-36.35751	
43.19894	2380.36		-36.33298	
43.25289	2378.51		-36.30652	
43.30684	2376.69		-36.27825	
43.36079	2374.9		-36.24829	
43.41474	2373.138		-36.21679	
43.46869	2371.4		-36.18394	
43.52264	2369.684		-36.14991	
43.57659	2367.988		-36.11493	
43.63054	2366.298		-36.07919	
43.68449	2364.593		-36.04294	
43.73844	2362.852		-36.00639	
43.79239	2361.063		-35.96977	
43.84634	2359.225		-35.93333	
43.90029	2357.346		-35.89734	
43.95424	2355.428		-35.86208	
44.00819	2353.467		-35.82788	
44.06214	2351.454		-35.79505	
44.11609	2349.387		-35.76389	
44.17004	2347.267		-35.73463	
44.224	2345.101		-35.70748	
44.27794	2342.908		-35.68253	
44.33189	2340.711		-35.65985	
44.38585	2338.525		-35.63946	
44.43979	2336.362		-35.62127	
44.49374	2334.227		-35.6051	
44.5477	2332.121		-35.59068	
44.60164	2330.043		-35.57769	
44.65559	2327.989		-35.56573	
44.70955	2325.955		-35.55436	
44.76349	2323.938		-35.54311	
44.81744	2321.935		-35.53147	
44.8714	2319.946		-35.51895	
44.92534	2317.975		-35.50507	
44.97929	2316.028		-35.48938	
45.03325	2314.114		-35.47152	
45.08719	2312.244		-35.45116	
45.14114	2310.427		-35.42807	
45.1951	2308.664		-35.40207	
45.24905	2306.95		-35.37306	
45.30299	2305.274		-35.341	
45.35695	2303.621		-35.3059	
45.4109	2301.975		-35.26786	
45.46484	2300.319		-35.22703	
45.5188	2298.636		-35.18356	
45.57275	2296.915		-35.13769	
45.62669	2295.148		-35.08968	
45.68064	2293.329		-35.03984	
45.7346	2291.458		-34.98852	
45.78854	2289.537		-34.93613	
45.84249	2287.578		-34.88313	
45.89645	2285.594		-34.83004	
45.95039	2283.6		-34.7774	
46.00434	2281.607		-34.72581	
46.0583	2279.623		-34.67585	
46.11224	2277.646		-34.62809	
46.16619	2275.668		-34.58301	
46.22015	2273.683		-34.54101	
46.2741	2271.686		-34.50239	
46.32804	2269.676		-34.46736	
46.382	2267.656		-34.43602	
46.43595	2265.632		-34.40837	
46.48989	2263.614		-34.38429	
46.54385	2261.614		-34.36353	
46.5978	2259.643		-34.34579	
46.65174	2257.709		-34.33071	
46.7057	2255.827		-34.31788	
46.75965	2254.004		-34.3069	
46.81359	2252.244		-34.29734	
46.86755	2250.545		-34.28879	
46.9215	2248.896		-34.2808	
46.97544	2247.285		-34.27293	
47.0294	2245.698		-34.26478	
47.08335	2244.123		-34.25594	
47.13729	2242.535		-34.24606	
47.19125	2240.915		-34.23481	
47.2452	2239.253		-34.22194	
47.29915	2237.548		-34.20723	
47.3531	2235.802		-34.19053	
47.40705	2234.023		-34.17173	
47.461	2232.219		-34.15081	
47.51495	2230.399		-34.12774	
47.5689	2228.564		-34.10257	
47.62285	2226.715		-34.0754	
47.6768	2224.853		-34.04642	
47.73075	2222.979		-34.01583	
47.7847	2221.092		-33.98394	
47.83865	2219.192		-33.9511	
47.8926	2217.283		-33.91771	
47.94655	2215.371		-33.8842	
48.0005	2213.458		-33.85102	
48.05445	2211.546		-33.81858	
48.1084	2209.634		-33.7873	
48.16235	2207.719		-33.75754	
48.2163	2205.794		-33.72958	
48.27025	2203.856		-33.70367	
48.3242	2201.905		-33.67996	
48.37815	2199.944		-33.65857	
48.4321	2197.982		-33.63954	
48.48605	2196.029		-33.62284	
48.54	2194.091		-33.60839	
48.59395	2192.174		-33.59599	
48.6479	2190.28		-33.58545	
48.70185	2188.411		-33.57652	
48.7558	2186.565		-33.56896	
48.80975	2184.75		-33.56256	
48.8637	2182.968		-33.55712	
48.91765	2181.214		-33.55243	
48.9716	2179.481		-33.54828	
49.02555	2177.766		-33.54449	
49.0795	2176.06		-33.54085	
49.13345	2174.351		-33.53718	
49.1874	2172.629		-33.53331	
49.24135	2170.887		-33.52906	
49.2953	2169.124		-33.52431	
49.34925	2167.343		-33.5189	
49.4032	2165.552		-33.5127	
49.45715	2163.762		-33.50556	
49.5111	2161.985		-33.49736	
49.56505	2160.226		-33.488	
49.619	2158.491		-33.47739	
49.67295	2156.777		-33.46544	
49.7269	2155.08		-33.45209	
49.78085	2153.388		-33.43731	
49.8348	2151.69		-33.42108	
49.88875	2149.974		-33.40343	
49.9427	2148.231		-33.3844	
49.99665	2146.461		-33.36404	
50.0506	2144.67		-33.34245	
50.10455	2142.868		-33.31974	
50.1585	2141.059		-33.29604	
50.21245	2139.245		-33.27153	
50.2664	2137.429		-33.2464	
50.32035	2135.615		-33.22086	
50.3743	2133.803		-33.19511	
50.42825	2131.994		-33.16939	
50.4822	2130.188		-33.14393	
50.53615	2128.391		-33.11894	
50.5901	2126.606		-33.0946	
50.64405	2124.834		-33.07101	
50.698	2123.073		-33.04826	
50.75195	2121.317		-33.0264	
50.8059	2119.563		-33.00545	
50.85985	2117.81		-32.98544	
50.9138	2116.048		-32.96636	
50.96775	2114.268		-32.94826	
51.0217	2112.464		-32.93115	
51.07565	2110.634		-32.91507	
51.1296	2108.781		-32.90005	
51.18355	2106.908		-32.88614	
51.2375	2105.016		-32.87338	
51.29145	2103.103		-32.86181	
51.3454	2101.166		-32.85145	
51.39935	2099.208		-32.84227	
51.4533	2097.237		-32.83421	
51.50725	2095.263		-32.82717	
51.5612	2093.302		-32.82104	
51.61515	2091.365		-32.81564	
51.6691	2089.466		-32.81073	
51.72305	2087.61		-32.80608	
51.777	2085.802		-32.80138	
51.83095	2084.038		-32.79637	
51.8849	2082.316		-32.79076	
51.93885	2080.629		-32.78429	
51.9928	2078.969		-32.77674	
52.04675	2077.333		-32.7679	
52.1007	2075.71		-32.7576	
52.15465	2074.091		-32.7457	
52.2086	2072.472		-32.73209	
52.26255	2070.86		-32.71669	
52.3165	2069.258		-32.69945	
52.37045	2067.67		-32.68035	
52.4244	2066.094		-32.65941	
52.47835	2064.526		-32.63668	
52.5323	2062.955		-32.61228	
52.58625	2061.371		-32.58633	
52.6402	2059.765		-32.55896	
52.69415	2058.129		-32.53029	
52.7481	2056.46		-32.50043	
52.80205	2054.757		-32.46948	
52.856	2053.024		-32.43755	
52.90995	2051.268		-32.40476	
52.9639	2049.487		-32.37127	
53.01785	2047.675		-32.33723	
53.0718	2045.829		-32.30285	
53.12575	2043.956		-32.26832	
53.1797	2042.067		-32.23387	
53.23365	2040.175		-32.19972	
53.2876	2038.286		-32.16608	
53.34155	2036.405		-32.13314	
53.3955	2034.537		-32.10104	
53.44945	2032.685		-32.06987	
53.5034	2030.848		-32.03966	
53.55735	2029.024		-32.01039	
53.61131	2027.214		-31.98199	
53.66525	2025.421		-31.95433	
53.7192	2023.64		-31.92723	
53.77316	2021.871		-31.90049	
53.8271	2020.116		-31.87391	
53.88105	2018.377		-31.84728	
53.93501	2016.656		-31.82042	
53.98895	2014.958		-31.79319	
54.0429	2013.279		-31.76544	
54.09686	2011.611		-31.73709	
54.1508	2009.945		-31.70807	
54.20475	2008.276		-31.6783	
54.25871	2006.598		-31.64776	
54.31265	2004.901		-31.61641	
54.3666	2003.182		-31.58422	
54.42056	2001.438		-31.55118	
54.4745	1999.673		-31.51728	
54.52845	1997.891		-31.48252	
54.58241	1996.101		-31.44693	
54.63636	1994.312		-31.41053	
54.6903	1992.536		-31.37338	
54.74426	1990.775		-31.33552	
54.79821	1989.037		-31.29704	
54.85215	1987.329		-31.25802	
54.90611	1985.663		-31.21854	
54.96006	1984.039		-31.17868	
55.014	1982.451		-31.13849	
55.06796	1980.891		-31.09803	
55.12191	1979.343		-31.05729	
55.17585	1977.796		-31.01629	
55.2298	1976.239		-30.97502	
55.28376	1974.668		-30.93343	
55.3377	1973.082		-30.8915	
55.39165	1971.485		-30.84914	
55.44561	1969.879		-30.8063	
55.49955	1968.264		-30.76287	
55.5535	1966.644		-30.71873	
55.60746	1965.024		-30.67374	
55.66141	1963.407		-30.62778	
55.71535	1961.793		-30.58071	
55.76931	1960.182		-30.53244	
55.82326	1958.574		-30.48287	
55.8772	1956.965		-30.43192	
55.93116	1955.357		-30.37959	
55.98511	1953.749		-30.32588	
56.03905	1952.133		-30.27088	
56.09301	1950.5		-30.21469	
56.14696	1948.85		-30.1575	
56.2009	1947.188		-30.09956	
56.25486	1945.518		-30.04115	
56.30881	1943.841		-29.9826	
56.36275	1942.159		-29.92429	
56.41671	1940.478		-29.86659	
56.47066	1938.798		-29.80989	
56.5246	1937.123		-29.75459	
56.57856	1935.456		-29.70105	
56.63251	1933.801		-29.64961	
56.68645	1932.153		-29.60061	
56.74041	1930.506		-29.55437	
56.79436	1928.857		-29.5112	
56.84831	1927.205		-29.47135	
56.90226	1925.55		-29.43502	
56.95621	1923.892		-29.40231	
57.01016	1922.232		-29.37328	
57.06411	1920.575		-29.34789	
57.11806	1918.916		-29.32602	
57.17201	1917.25		-29.30753	
57.22596	1915.57		-29.29218	
57.27991	1913.875		-29.27971	
57.33386	1912.169		-29.26979	
57.38781	1910.459		-29.26209	
57.44176	1908.759		-29.25622	
57.49571	1907.082		-29.25177	
57.54966	1905.442		-29.24831	
57.60361	1903.851		-29.24535	
57.65756	1902.321		-29.24244	
57.71151	1900.858		-29.23912	
57.76546	1899.459		-29.23498	
57.81941	1898.116		-29.2296	
57.87336	1896.818		-29.22265	
57.92731	1895.55		-29.21378	
57.98126	1894.297		-29.20267	
58.03521	1893.038		-29.18904	
58.08916	1891.757		-29.17268	
58.14311	1890.45		-29.15341	
58.19706	1889.116		-29.13115	
58.25101	1887.753		-29.1059	
58.30496	1886.358		-29.07769	
58.35891	1884.933		-29.04665	
58.41286	1883.479		-29.01298	
58.46681	1881.994		-28.9769	
58.52076	1880.479		-28.93873	
58.57471	1878.94		-28.89875	
58.62866	1877.379		-28.85727	
58.68261	1875.793		-28.81459	
58.73656	1874.182		-28.77104	
58.79051	1872.544		-28.72688	
58.84446	1870.875		-28.68233	
58.89841	1869.173		-28.63758	
58.95236	1867.44		-28.59277	
59.00631	1865.677		-28.54799	
59.06026	1863.892		-28.50333	
59.11421	1862.094		-28.45884	
59.16816	1860.294		-28.41458	
59.22211	1858.505		-28.37059	
59.27606	1856.733		-28.3269	
59.33001	1854.979		-28.28349	
59.38396	1853.244		-28.24035	
59.43791	1851.53		-28.19739	
59.49186	1849.844		-28.15449	
59.54581	1848.184		-28.1115	
59.59976	1846.552		-28.06823	
59.65371	1844.947		-28.02441	
59.70766	1843.362		-27.97976	
59.76161	1841.796		-27.93401	
59.81556	1840.247		-27.88681	
59.86951	1838.717		-27.83789	
59.92346	1837.21		-27.78693	
59.97741	1835.724		-27.73366	
60.03136	1834.252		-27.6778	
60.08531	1832.79		-27.61916	
60.13926	1831.336		-27.55756	
60.19321	1829.89		-27.49291	
60.24716	1828.448		-27.42516	
60.30111	1827.013		-27.35434	
60.35506	1825.584		-27.28047	
60.40901	1824.163		-27.20365	
60.46296	1822.755		-27.124	
60.51691	1821.37		-27.04168	
60.57086	1820.011		-26.95684	
60.62481	1818.676		-26.86972	
60.67876	1817.36		-26.78054	
60.73271	1816.053		-26.68957	
60.78666	1814.745		-26.59705	
60.84061	1813.43		-26.50318	
60.89456	1812.108		-26.40813	
60.94851	1810.776		-26.31202	
61.00246	1809.429		-26.21498	
61.05641	1808.064		-26.11709	
61.11036	1806.687		-26.01847	
61.16431	1805.306		-25.91919	
61.21826	1803.931		-25.8193	
61.27221	1802.566		-25.71886	
61.32616	1801.212		-25.6179	
61.38011	1799.869		-25.51641	
61.43406	1798.536		-25.41437	
61.48801	1797.214		-25.31173	
61.54196	1795.9		-25.20837	
61.59591	1794.589		-25.10418	
61.64986	1793.275		-24.999	
61.70381	1791.951		-24.8926	
61.75776	1790.612		-24.78476	
61.81171	1789.248		-24.67521	
61.86566	1787.858		-24.56369	
61.91961	1786.444		-24.44996	
61.97356	1785.014		-24.3338	
62.02751	1783.581		-24.21502	
62.08146	1782.149		-24.09344	
62.13541	1780.726		-23.96893	
62.18936	1779.318		-23.84134	
62.24331	1777.932		-23.71055	
62.29726	1776.567		-23.57646	
62.35121	1775.213		-23.43894	
62.40516	1773.858		-23.29785	
62.45911	1772.499		-23.15304	
62.51306	1771.13		-23.00429	
62.56701	1769.752		-22.85137	
62.62096	1768.37		-22.69402	
62.67491	1766.989		-22.53197	
62.72886	1765.61		-22.36494	
62.78281	1764.238		-22.19262	
62.83676	1762.88		-22.01466	
62.89071	1761.547		-21.83063	
62.94466	1760.25		-21.64009	
62.99861	1758.991		-21.44255	
63.05256	1757.775		-21.23752	
63.10651	1756.601		-21.02447	
63.16047	1755.46		-20.80287	
63.21441	1754.34		-20.57218	
63.26836	1753.226		-20.33182	
63.32232	1752.111		-20.08125	
63.37626	1750.993		-19.81996	
63.43021	1749.882		-19.54742	
63.48417	1748.791		-19.26315	
63.53811	1747.729		-18.96673	
63.59206	1746.694		-18.65767	
63.64602	1745.682		-18.33561	
63.69996	1744.693		-18.00023	
63.75391	1743.729		-17.65118	
63.80787	1742.798		-17.28821	
63.86181	1741.893		-16.91112	
63.91576	1741.012		-16.51963	
63.96972	1740.154		-16.11361	
64.02367	1739.314		-15.69287	
64.07761	1738.484		-15.25725	
64.13156	1737.658		-14.80648	
64.18552	1736.833		-14.34024	
64.23946	1736.007		-13.85834	
64.29341	1735.18		-13.36039	
64.34737	1734.348		-12.84596	
64.40131	1733.512		-12.31481	
64.45526	1732.67		-11.76647	
64.50922	1731.822		-11.20046	
64.56316	1730.974		-10.61642	
64.61712	1730.141		-10.01372	
64.67107	1729.331		-9.39197	
64.72501	1728.549		-8.750461	
64.77897	1727.794		-8.08849	
64.83292	1727.058		-7.405552	
64.88686	1726.34		-6.700769	
64.94082	1725.638		-5.973242	
64.99477	1724.96		-5.222287	
65.04871	1724.318		-4.446802	
65.10267	1723.725		-3.645671	
65.15662	1723.194		-2.818019	
65.21056	1722.729		-1.962539	
65.26452	1722.323		-1.077948	
65.31847	1721.966		-0.1632799	
65.37241	1721.655		0.782856	
65.42637	1721.4		1.761763	
65.48032	1721.215		2.774344	
65.53426	1721.114		3.821944	
65.58822	1721.1		4.905791	
65.64217	1721.173		6.026653	
65.69611	1721.324		7.185759	
65.75007	1721.551		8.384161	
65.80402	1721.839		9.62246	
65.85796	1722.18		10.90164	
65.91192	1722.564		12.22256	
65.96587	1722.986		13.58559	
66.01981	1723.444		14.99155	
66.07377	1723.939		16.44122	
66.12772	1724.475		17.93488	
66.18166	1725.056		19.47336	
66.23562	1725.688		21.05747	
66.28957	1726.381		22.68748	
66.34351	1727.14		24.36417	
66.39747	1727.973		26.08844	
66.45142	1728.883		27.86052	
66.50536	1729.871		29.68119	
66.55932	1730.943		31.55137	
66.61327	1732.106		33.47124	
66.66721	1733.369		35.44167	
66.72117	1734.744		37.4637	
66.77512	1736.237		39.53752	
66.82907	1737.854		41.66451	
66.88302	1739.595		43.84493	
66.93697	1741.461		46.08004	
66.99092	1743.449		48.37115	
67.04487	1745.557		50.71871	
67.09882	1747.785		53.12416	
67.15277	1750.141		55.58904	
67.20672	1752.629		58.11378	
67.26067	1755.255		60.70014	
67.31462	1758.025		63.34952	
67.36857	1760.937		66.06236	
67.42252	1763.989		68.84039	
67.47647	1767.186		71.68491	
67.53042	1770.533		74.59615	
67.58437	1774.039		77.57568	
67.63832	1777.715		80.62463	
67.69227	1781.564		83.74292	
67.74622	1785.591		86.9319	
67.80017	1789.792		90.19241	
67.85412	1794.16		93.52392	
67.90807	1798.691		96.92737	
67.96202	1803.379		100.4031	
68.01597	1808.221		103.95	
68.06992	1813.219		107.5686	
68.12387	1818.383		111.2587	
68.17782	1823.722		115.0188	
68.23177	1829.248		118.8491	
68.28572	1834.966		122.7491	
68.33967	1840.885		126.7171	
68.39362	1847.017		130.7525	
68.44757	1853.376		134.855	
68.50152	1859.966		139.0224	
68.55547	1866.79		143.254	
68.60942	1873.848		147.5492	
68.66337	1881.137		151.9058	
68.71732	1888.655		156.323	
68.77127	1896.406		160.8004	
68.82522	1904.39		165.3356	
68.87917	1912.613		169.9288	
68.93312	1921.081		174.5776	
68.98707	1929.799		179.2816	
69.04102	1938.774		184.0405	
69.09497	1948.008		188.8518	
69.14892	1957.509		193.7153	
69.20287	1967.296		198.6304	
69.25682	1977.386		203.5945	
69.31077	1987.802		208.6069	
69.36472	1998.556		213.6668	
69.41867	2009.647		218.7711	
69.47262	2021.086		223.9184	
69.52657	2032.877		229.1072	
69.58052	2045.02		234.3332	
69.63447	2057.518		239.5944	
69.68842	2070.371		244.8877	
69.74237	2083.569		250.2077	
69.79632	2097.102		255.5504	
69.85027	2110.957		260.9113	
69.90422	2125.121		266.2831	
69.95817	2139.592		271.6599	
70.01212	2154.371		277.0352	
70.06607	2169.456		282.3997	
70.12002	2184.857		287.7453	
70.17397	2200.586		293.0638	
70.22792	2216.648		298.344	
70.28187	2233.045		303.5763	
70.33582	2249.776		308.7507	
70.38977	2266.828		313.8544	
70.44372	2284.193		318.8766	
70.49767	2301.861		323.806	
70.55162	2319.811		328.6289	
70.60557	2338.036		333.3335	
70.65952	2356.532		337.9079	
70.71347	2375.295		342.3382	
70.76742	2394.332		346.6125	
70.82137	2413.651		350.7189	
70.87532	2433.254		354.6442	
70.92928	2453.156		358.3777	
70.98322	2473.361		361.907	
71.03717	2493.886		365.2217	
71.09113	2514.744		368.3121	
71.14507	2535.94		371.1677	
71.19902	2557.487		373.7802	
71.25298	2579.394		376.1418	
71.30692	2601.657		378.2447	
71.36087	2624.28		380.0829	
71.41483	2647.258		381.6512	
71.46877	2670.576		382.9449	
71.52272	2694.23		383.9595	
71.57668	2718.218		384.6932	
71.63062	2742.52		385.1438	
71.68457	2767.13		385.3091	
71.73853	2792.039		385.1897	
71.79247	2817.215		384.7856	
71.84642	2842.628		384.0967	
71.90038	2868.244		383.1255	
71.95432	2894.018		381.8744	
72.00827	2919.906		380.3449	
72.06223	2945.856		378.5413	
72.11617	2971.802		376.4677	
72.17012	2997.689		374.1271	
72.22408	3023.457		371.5251	
72.27802	3049.029		368.6675	
72.33197	3074.337		365.5586	
72.38593	3099.325		362.205	
72.43987	3123.935		358.6139	
72.49382	3148.125		354.7905	
72.54778	3171.848		350.7422	
72.60172	3195.05		346.4771	
72.65567	3217.696		342.0019	
72.70963	3239.761		337.3238	
72.76357	3261.222		332.4521	
72.81752	3282.067		327.3946	
72.87148	3302.276		322.1591	
72.92542	3321.821		316.7561	
72.97938	3340.686		311.1934	
73.03333	3358.846		305.4823	
73.08727	3376.288		299.6322	
73.14123	3393.005		293.6526	
73.19518	3408.991		287.556	
73.24912	3424.258		281.353	
73.30308	3438.825		275.0543	
73.35703	3452.719		268.6737	
73.41097	3465.969		262.2228	
73.46493	3478.612		255.7133	
73.51888	3490.684		249.16	
73.57282	3502.222		242.575	
73.62678	3513.257		235.9704	
73.68073	3523.815		229.3614	
73.73467	3533.922		222.7603	
73.78863	3543.6		216.1792	
73.84258	3552.859		209.6328	
73.89652	3561.707		203.1332	
73.95048	3570.14		196.6915	
74.00443	3578.146		190.3214	
74.05837	3585.714		184.0339	
74.11233	3592.857		177.8387	
74.16628	3599.604		171.7476	
74.22022	3606.002		165.7701	
74.27418	3612.088		159.9136	
74.32813	3617.894		154.1878	
74.38207	3623.458		148.5999	
74.43603	3628.823		143.155	
74.48997	3634.025		137.86	
74.54392	3639.086		132.7194	
74.59788	3644.016		127.7357	
74.65182	3648.81		122.9134	
74.70577	3653.468		118.2539	
74.75973	3657.984		113.7578	
74.81367	3662.348		109.4267	
74.86762	3666.552		105.2597	
74.92158	3670.597		101.2551	
74.97552	3674.48		97.41212	
75.02947	3678.209		93.72768	
75.08343	3681.795		90.19804	
75.13737	3685.252		86.82045	
75.19133	3688.604		83.58969	
75.24528	3691.869		80.50201	
75.29922	3695.067		77.55199	
75.35318	3698.21		74.73405	
75.40713	3701.307		72.04366	
75.46107	3704.364		69.47501	
75.51503	3707.379		67.02233	
75.56898	3710.34		64.6808	
75.62292	3713.225		62.44502	
75.67688	3716.008		60.30925	
75.73083	3718.665		58.2691	
75.78477	3721.188		56.31969	
75.83873	3723.59		54.45595	
75.89268	3725.896		52.674	
75.94662	3728.131		50.96953	
76.00058	3730.308		49.33808	
76.05453	3732.433		47.77623	
76.10847	3734.512		46.28022	
76.16243	3736.565		44.8462	
76.21638	3738.607		43.47126	
76.27032	3740.648		42.15216	
76.32428	3742.692		40.88561	
76.37823	3744.741		39.66916	
76.43217	3746.787		38.50006	
76.48613	3748.817		37.37557	
76.54008	3750.812		36.29368	
76.59402	3752.75		35.25216	
76.64798	3754.623		34.24876	
76.70193	3756.428		33.28192	
76.75587	3758.166		32.34975	
76.80983	3759.832		31.45051	
76.86378	3761.418		30.58291	
76.91772	3762.917		29.74529	
76.97168	3764.333		28.93596	
77.02563	3765.673		28.15357	
77.07957	3766.95		27.39642	
77.13353	3768.176		26.66279	
77.18748	3769.361		25.95128	
77.24143	3770.513		25.26012	
77.29538	3771.636		24.58793	
77.34933	3772.72		23.93312	
77.40328	3773.761		23.29417	
77.45723	3774.747		22.66991	
77.51118	3775.662		22.05903	
77.56513	3776.495		21.46032	
77.61908	3777.247		20.87299	
77.67303	3777.923		20.29612	
77.72698	3778.532		19.72894	
77.78093	3779.092		19.17107	
77.83488	3779.628		18.6221	
77.88883	3780.172		18.08165	
77.94278	3780.749		17.54976	
77.99673	3781.374		17.02636	
78.05068	3782.045		16.51145	
78.10463	3782.76		16.00535	
78.15858	3783.508		15.5083	
78.21253	3784.272		15.02053	
78.26648	3785.04		14.54261	
78.32043	3785.81		14.07496	
78.37438	3786.58		13.61799	
78.42833	3787.346		13.17241	
78.48228	3788.102		12.73877	
78.53623	3788.844		12.31767	
78.59018	3789.566		11.90985	
78.64413	3790.267		11.51587	
78.69808	3790.953		11.1362	
78.75203	3791.642		10.77142	
78.80598	3792.354		10.42189	
78.85993	3793.101		10.08788	
78.91388	3793.889		9.769714	
78.96783	3794.709		9.467512	
79.02178	3795.538		9.181277	
79.07573	3796.347		8.911034	
79.12968	3797.103		8.656559	
79.18363	3797.779		8.41755	
79.23758	3798.363		8.193709	
79.29153	3798.86		7.98457	
79.34548	3799.286		7.789745	
79.39943	3799.66		7.608746	
79.45338	3799.99		7.441045	
79.50733	3800.276		7.28617	
79.56128	3800.517		7.143542	
79.61523	3800.706		7.012578	
79.66918	3800.839		6.892715	
79.72313	3800.917		6.783312	
79.77708	3800.947		6.683726	
79.83103	3800.939		6.593368	
79.88498	3800.906		6.511704	
79.93893	3800.851		6.438197	
79.99288	3800.777		6.372464	
80.04683	3800.687		6.314248	
80.10078	3800.585		6.263282	
80.15473	3800.473		6.219433	
80.20868	3800.356		6.182643	
80.26263	3800.24		6.15283	
80.31658	3800.134		6.130019	
80.37053	3800.05		6.114338	
80.42448	3800.001		6.105875	
80.47843	3799.995		6.104818	
80.53238	3800.039		6.111418	
80.58633	3800.139		6.125831	
80.64028	3800.296		6.148194	
80.69423	3800.501		6.178621	
80.74818	3800.74		6.217082	
80.80213	3801.003		6.263494	
80.85608	3801.289		6.317746	
80.91003	3801.601		6.379601	
80.96398	3801.945		6.448792	
81.01793	3802.323		6.525002	
81.07188	3802.737		6.607837	
81.12583	3803.178		6.696774	
81.17978	3803.634		6.791214	
81.23373	3804.097		6.890423	
81.28768	3804.568		6.993491	
81.34163	3805.052		7.099424	
81.39558	3805.553		7.20715	
81.44953	3806.073		7.315477	
81.50349	3806.621		7.423215	
81.55743	3807.195		7.529058	
81.61138	3807.785		7.631714	
81.66534	3808.375		7.729846	
81.71928	3808.95		7.822058	
81.77323	3809.509		7.906959	
81.82719	3810.06		7.983161	
81.88113	3810.612		8.049298	
81.93508	3811.182		8.104064	
81.98904	3811.78		8.146323	
82.04298	3812.415		8.174981	
82.09693	3813.091		8.188972	
82.15089	3813.809		8.187396	
82.20483	3814.559		8.169353	
82.25878	3815.322		8.133965	
82.31274	3816.073		8.080534	
82.36668	3816.799		8.008429	
82.42063	3817.486		7.91704	
82.47459	3818.127		7.806007	
82.52853	3818.722		7.675051	
82.58248	3819.274		7.52389	
82.63644	3819.792		7.352405	
82.69038	3820.281		7.160549	
82.74433	3820.742		6.948171	
82.79829	3821.185		6.715262	
82.85223	3821.62		6.461864	
82.90618	3822.062		6.187889	
82.96014	3822.526		5.893413	
83.01408	3823.021		5.578625	
83.06803	3823.547		5.243652	
83.12199	3824.089		4.88864	
83.17593	3824.625		4.513874	
83.22988	3825.128		4.119452	
83.28384	3825.581		3.705389	
83.33778	3825.978		3.271796	
83.39173	3826.325		2.818541	
83.44569	3826.632		2.345428	
83.49963	3826.923		1.852425	
83.55359	3827.216		1.339194	
83.60754	3827.528		0.8056617	
83.66148	3827.864		0.2515243	
83.71544	3828.221		-0.3235346	
83.76939	3828.578		-0.9195926	
83.82333	3828.906		-1.536958	
83.87729	3829.169		-2.175925	
83.93124	3829.342		-2.836453	
83.98518	3829.404		-3.51872	
84.03914	3829.35		-4.222869	
84.09309	3829.178		-4.948676	
84.14703	3828.9		-5.696225	
84.20099	3828.537		-6.465435	
84.25494	3828.113		-7.255897	
84.30888	3827.646		-8.067543	
84.36284	3827.152		-8.900146	
84.41679	3826.646		-9.753135	
84.47073	3826.137		-10.62628	
84.52469	3825.633		-11.51919	
84.57864	3825.138		-12.43103	
84.63258	3824.644		-13.36133	
84.68654	3824.136		-14.30934	
84.74049	3823.599		-15.27388	
84.79443	3823.018		-16.25406	
84.84839	3822.38		-17.24879	
84.90234	3821.681		-18.25653	
84.95628	3820.918		-19.27611	
85.01024	3820.094		-20.30618	
85.06419	3819.224		-21.34492	
85.11813	3818.324		-22.39089	
85.17209	3817.399		-23.44262	
85.22604	3816.45		-24.49815	
85.27998	3815.468		-25.55597	
85.33394	3814.436		-26.61464	
85.38789	3813.325		-27.67226	
85.44183	3812.109		-28.72742	
85.49579	3810.767		-29.77873	
85.54974	3809.292		-30.82432	
85.60369	3807.692		-31.86292	
85.65764	3805.978		-32.89266	
85.71159	3804.166		-33.91214	
85.76554	3802.259		-34.92	
85.81949	3800.256		-35.91456	
85.87344	3798.158		-36.89466	
85.92739	3795.975		-37.85926	
85.98134	3793.719		-38.80703	
86.03529	3791.397		-39.73719	
86.08924	3789.011		-40.64902	
86.14319	3786.565		-41.54158	
86.19714	3784.054		-42.41426	
86.25109	3781.475		-43.2667	
86.30504	3778.825		-44.09814	
86.35899	3776.107		-44.90823	
86.41294	3773.317		-45.69685	
86.46689	3770.462		-46.46362	
86.52084	3767.542		-47.20857	
86.57479	3764.552		-47.932	
86.62874	3761.483		-48.63389	
86.68269	3758.326		-49.31453	
86.73664	3755.08		-49.97444	
86.79059	3751.761		-50.6138	
86.84454	3748.382		-51.23301	
86.89849	3744.956		-51.83272	
86.95244	3741.486		-52.41324	
87.00639	3737.979		-52.97507	
87.06034	3734.437		-53.51889	
87.11429	3730.865		-54.04507	
87.16824	3727.275		-54.55418	
87.22219	3723.692		-55.04696	
87.27614	3720.137		-55.5239	
87.33009	3716.624		-55.9858	
87.38404	3713.153		-56.43355	
87.43799	3709.719		-56.86785	
87.49194	3706.311		-57.28963	
87.54589	3702.929		-57.69981	
87.59984	3699.578		-58.09906	
87.65379	3696.266		-58.48828	
87.70774	3692.996		-58.86805	
87.76169	3689.765		-59.23913	
87.81564	3686.567		-59.60223	
87.86959	3683.397		-59.95793	
87.92354	3680.241		-60.30697	
87.97749	3677.095		-60.65014	
88.03144	3673.971		-60.98808	
88.08539	3670.883		-61.32156	
88.13934	3667.844		-61.65134	
88.19329	3664.861		-61.97794	
88.24724	3661.932		-62.30198	
88.30119	3659.044		-62.62392	
88.35514	3656.179		-62.94402	
88.40909	3653.318		-63.26268	
88.46304	3650.439		-63.58015	
88.51699	3647.529		-63.89658	
88.57094	3644.58		-64.21219	
88.62489	3641.579		-64.5271	
88.67884	3638.52		-64.84131	
88.73279	3635.402		-65.15496	
88.78674	3632.222		-65.46812	
88.84069	3628.991		-65.78075	
88.89464	3625.722		-66.09299	
88.94859	3622.43		-66.40487	
89.00254	3619.125		-66.71624	
89.05649	3615.795		-67.02705	
89.11044	3612.426		-67.33711	
89.16439	3609.006		-67.64603	
89.21834	3605.525		-67.95354	
89.27229	3601.969		-68.25927	
89.32624	3598.331		-68.56274	
89.38019	3594.602		-68.86359	
89.43414	3590.778		-69.16138	
89.48809	3586.861		-69.45555	
89.54204	3582.86		-69.74561	
89.59599	3578.786		-70.03107	
89.64994	3574.659		-70.31136	
89.70389	3570.488		-70.58606	
89.75784	3566.287		-70.85481	
89.81179	3562.074		-71.11716	
89.86575	3557.857		-71.37286	
89.91969	3553.624		-71.62151	
89.97364	3549.367		-71.86288	
90.0276	3545.073		-72.0968	
90.08154	3540.74		-72.32301	
90.13549	3536.362		-72.54144	
90.18945	3531.947		-72.75199	
90.24339	3527.505		-72.95455	
90.29734	3523.053		-73.149	
90.3513	3518.599		-73.3354	
90.40524	3514.155		-73.51367	
90.45919	3509.716		-73.68383	
90.51315	3505.283		-73.84602	
90.56709	3500.855		-74.00031	
90.62104	3496.439		-74.1468	
90.675	3492.042		-74.28577	
90.72894	3487.68		-74.41734	
90.78289	3483.364		-74.54176	
90.83685	3479.099		-74.65934	
90.89079	3474.889		-74.77029	
90.94474	3470.732		-74.87489	
90.9987	3466.623		-74.97342	
91.05264	3462.561		-75.06608	
91.10659	3458.549		-75.15308	
91.16055	3454.593		-75.23463	
91.21449	3450.694		-75.31084	
91.26844	3446.846		-75.38187	
91.3224	3443.037		-75.44787	
91.37634	3439.252		-75.50898	
91.43029	3435.476		-75.5654	
91.48425	3431.697		-75.61732	
91.53819	3427.917		-75.66489	
91.59214	3424.147		-75.70829	
91.6461	3420.399		-75.74773	
91.70004	3416.679		-75.78351	
91.75399	3412.993		-75.81596	
91.80795	3409.337		-75.84552	
91.86189	3405.7		-75.87266	
91.91585	3402.065		-75.89791	
91.9698	3398.42		-75.92185	
92.02374	3394.753		-75.94509	
92.0777	3391.058		-75.96826	
92.13165	3387.328		-75.99198	
92.18559	3383.553		-76.01686	
92.23955	3379.719		-76.04346	
92.2935	3375.822		-76.07228	
92.34744	3371.863		-76.10374	
92.4014	3367.849		-76.13826	
92.45535	3363.791		-76.203	
92.50929	3359.694		-76.25973	
92.56325	3355.557		-76.31111	
92.6172	3351.375		-76.35957	
92.67114	3347.141		-76.40694	
92.7251	3342.851		-76.45453	
92.77905	3338.505		-76.50307	
92.83299	3334.11		-76.55307	
92.88695	3329.667		-76.60474	
92.9409	3325.176		-76.65816	
92.99484	3320.636		-76.71333	
93.0488	3316.052		-76.77019	
93.10275	3311.434		-76.82861	
93.15669	3306.804		-76.8885	
93.21065	3302.179		-76.94971	
93.2646	3297.582		-77.01208	
93.31854	3293.021		-77.07547	
93.3725	3288.506		-77.13974	
93.42645	3284.038		-77.20471	
93.48039	3279.62		-77.27023	
93.53435	3275.242		-77.33617	
93.58829	3270.899		-77.40232	
93.64224	3266.591		-77.46857	
93.6962	3262.325		-77.53477	
93.75014	3258.104		-77.60075	
93.80409	3253.935		-77.6664	
93.85805	3249.816		-77.73159	
93.91199	3245.737		-77.79619	
93.96595	3241.672		-77.8601	
94.0199	3237.605		-77.92319	
94.07384	3233.493		-77.98539	
94.1278	3229.374		-78.04659	
94.18175	3225.27		-78.10671	
94.23569	3221.179		-78.16568	
94.28965	3217.096		-78.22344	
94.3436	3213.019		-78.27991	
94.39754	3208.945		-78.33508	
94.4515	3204.87		-78.38888	
94.50545	3200.796		-78.44128	
94.55939	3196.72		-78.49225	
94.61335	3192.641		-78.54179	
94.6673	3188.559		-78.58986	
94.72124	3184.474		-78.63647	
94.7752	3180.383		-78.68163	
94.82915	3176.287		-78.72533	
94.88309	3172.186		-78.76759	
94.93705	3168.08		-78.80843	
94.991	3163.971		-78.84788	
